File: data/c15.csv
Time,Unsubtracted Weight,Baseline Weight,Program Temperature,Sample Temperature,Approx. Gas Flow,Unsubtracted Delta T,Baseline Delta T,Unsubtracted Heat Flow,Baseline Heat Flow,Heat Flow Calibration,Unsubstracted Microvolt,R25 Diagnostic Signal,
0.000000,10.0801,0.000000,25.0312,24.79,30,0.364385,0.000000,19.988,0.000000,1.000000,0.480639,14.622,
0.125000,10.0746,0.000000,26.875,24.88,30,0.325694,0.000000,19.4423,0.000000,1.000000,0.429722,13.073,
0.250000,10.0714,0.000000,28.75,24.97,30,0.300330,0.000000,19.0846,0.000000,1.000000,0.396358,12.058,
0.375000,10.0705,0.000000,30.625,25.19,30,0.287164,0.000000,18.9016,0.000000,1.000000,0.379298,11.539,
0.500000,10.072,0.000000,32.5,25.6,30,0.284211,0.000000,18.8655,0.000000,1.000000,0.375978,11.438,
0.625000,10.0735,0.000000,34.375,26.21,30,0.288150,0.000000,18.93,0.000000,1.000000,0.382059,11.623,
0.750000,10.0746,0.000000,36.25,27,30,0.295966,0.000000,19.0523,0.000000,1.000000,0.393564,11.973,
0.875000,10.0748,0.000000,38.125,27.96,30,0.307582,0.000000,19.2317,0.000000,1.000000,0.410427,12.486,
1.000000,10.0742,0.000000,40,29.08,30,0.321543,0.000000,19.4484,0.000000,1.000000,0.430807,13.106,
1.125000,10.0724,0.000000,41.875,30.36,30,0.338603,0.000000,19.7134,0.000000,1.000000,0.455723,13.864,
1.250000,10.0694,0.000000,43.75,31.77,30,0.359791,0.000000,20.0423,0.000000,1.000000,0.486654,14.805,
1.375000,10.065,0.000000,45.625,33.31,30,0.387573,0.000000,20.4719,0.000000,1.000000,0.527053,16.034,
1.500000,10.0589,0.000000,47.5,34.97,30,0.423648,0.000000,21.0285,0.000000,1.000000,0.579383,17.626,
1.625000,10.0508,0.000000,49.375,36.74,30,0.465298,0.000000,21.6746,0.000000,1.000000,0.640162,19.475,
1.750000,10.041,0.000000,51.25,38.58,30,0.506514,0.000000,22.3221,0.000000,1.000000,0.701137,21.33,
1.875000,10.029,0.000000,53.125,40.47,30,0.546682,0.000000,22.9615,0.000000,1.000000,0.761423,23.164,
2.000000,10.0153,0.000000,55,42.38,30,0.585152,0.000000,23.5823,0.000000,1.000000,0.820032,24.947,
2.125000,9.999561,0.000000,56.875,44.32,30,0.621280,0.000000,24.174,0.000000,1.000000,0.875978,26.649,
2.250000,9.981014,0.000000,58.75,46.25,30,0.654552,0.000000,24.728,0.000000,1.000000,0.928440,28.245,
2.375000,9.962249,0.000000,60.625,48.19,30,0.684674,0.000000,25.2391,0.000000,1.000000,0.976925,29.72,
2.500000,9.941301,0.000000,62.5,50.12,30,0.711366,0.000000,25.7015,0.000000,1.000000,1.020873,31.057,
2.625000,9.920572,0.000000,64.375,52.03,30,0.733619,0.000000,26.0991,0.000000,1.000000,1.058773,32.21,
2.750000,9.903770,0.000000,66.25,53.94,30,0.752263,0.000000,26.4432,0.000000,1.000000,1.091677,33.211,
2.875000,9.883259,0.000000,68.125,55.83,30,0.765421,0.000000,26.704,0.000000,1.000000,1.116758,33.974,
3.000000,9.861657,0.000000,70,57.71,30,0.772539,0.000000,26.8716,0.000000,1.000000,1.133094,34.471,
3.125000,9.838528,0.000000,71.875,59.57,30,0.775118,0.000000,26.9681,0.000000,1.000000,1.142726,34.764,
3.250000,9.818453,0.000000,73.75,61.43,30,0.772498,0.000000,26.9821,0.000000,1.000000,1.144599,34.821,
3.375000,9.799688,0.000000,75.625,63.27,30,0.764427,0.000000,26.9087,0.000000,1.000000,1.138222,34.627,
3.500000,9.782013,0.000000,77.5,65.11,30,0.751650,0.000000,26.7588,0.000000,1.000000,1.124614,34.213,
3.625000,9.766303,0.000000,79.375,66.93,30,0.736556,0.000000,26.569,0.000000,1.000000,1.107225,33.684,
3.750000,9.749283,0.000000,81.25,68.75,30,0.718514,0.000000,26.3293,0.000000,1.000000,1.085103,33.011,
3.875000,9.735755,0.000000,83.125,70.56,30,0.698273,0.000000,26.0512,0.000000,1.000000,1.059332,32.227,
4.000000,9.723535,0.000000,85,72.36,30,0.677054,0.000000,25.754,0.000000,1.000000,1.031720,31.387,
4.125000,9.711752,0.000000,86.875,74.16,30,0.655106,0.000000,25.4418,0.000000,1.000000,1.002663,30.503,
4.250000,9.699533,0.000000,88.75,75.95,30,0.633178,0.000000,25.1264,0.000000,1.000000,0.973276,29.609,
4.375000,9.686223,0.000000,90.625,77.73,30,0.612001,0.000000,24.82,0.000000,1.000000,0.944711,28.74,
4.500000,9.677058,0.000000,92.5,79.52,30,0.591639,0.000000,24.524,0.000000,1.000000,0.917099,27.9,
4.625000,9.669421,0.000000,94.375,81.29,30,0.572325,0.000000,24.2421,0.000000,1.000000,0.890803,27.1,
4.750000,9.660911,0.000000,96.25,83.08,30,0.553892,0.000000,23.9723,0.000000,1.000000,0.865624,26.334,
4.875000,9.653056,0.000000,98.125,84.85,30,0.536663,0.000000,23.7198,0.000000,1.000000,0.842055,25.617,
5.000000,9.645855,0.000000,100,86.63,30,0.520399,0.000000,23.481,0.000000,1.000000,0.819769,24.939,
5.125000,9.639091,0.000000,101.875,88.41,30,0.505388,0.000000,23.2607,0.000000,1.000000,0.799224,24.314,
5.250000,9.632763,0.000000,103.75,90.2,30,0.491348,0.000000,23.0549,0.000000,1.000000,0.780028,23.73,
5.375000,9.626872,0.000000,105.625,91.98,30,0.478485,0.000000,22.8669,0.000000,1.000000,0.762507,23.197,
5.500000,9.621635,0.000000,107.5,93.77,30,0.466492,0.000000,22.6919,0.000000,1.000000,0.746203,22.701,
5.625000,9.616398,0.000000,109.375,95.57,30,0.455356,0.000000,22.5298,0.000000,1.000000,0.731116,22.242,
5.750000,9.611379,0.000000,111.25,97.37,30,0.444970,0.000000,22.379,0.000000,1.000000,0.717080,21.815,
5.875000,9.606797,0.000000,113.125,99.18,30,0.435237,0.000000,22.2379,0.000000,1.000000,0.703964,21.416,
6.000000,9.602433,0.000000,115,100.99,30,0.426050,0.000000,22.1049,0.000000,1.000000,0.691605,21.04,
6.125000,9.598505,0.000000,116.875,102.81,30,0.417403,0.000000,21.98,0.000000,1.000000,0.680001,20.687,
6.250000,9.595014,0.000000,118.75,104.63,30,0.409210,0.000000,21.8617,0.000000,1.000000,0.669022,20.353,
6.375000,9.591741,0.000000,120.625,106.47,30,0.401679,0.000000,21.7539,0.000000,1.000000,0.659030,20.049,
6.500000,9.588904,0.000000,122.5,108.31,30,0.394671,0.000000,21.6541,0.000000,1.000000,0.649793,19.768,
6.625000,9.586068,0.000000,124.375,110.15,30,0.387880,0.000000,21.5572,0.000000,1.000000,0.640819,19.495,
6.750000,9.583667,0.000000,126.25,112,30,0.381444,0.000000,21.4655,0.000000,1.000000,0.632338,19.237,
6.875000,9.581267,0.000000,128.125,113.86,30,0.375239,0.000000,21.377,0.000000,1.000000,0.624154,18.988,
7.000000,9.578649,0.000000,130,115.72,30,0.369238,0.000000,21.2913,0.000000,1.000000,0.616232,18.747,
7.125000,9.576249,0.000000,131.875,117.59,30,0.363328,0.000000,21.2064,0.000000,1.000000,0.608376,18.508,
7.250000,9.573848,0.000000,133.75,119.46,30,0.357735,0.000000,21.1264,0.000000,1.000000,0.600980,18.283,
7.375000,9.571885,0.000000,135.625,121.34,30,0.352483,0.000000,21.0516,0.000000,1.000000,0.594077,18.073,
7.500000,9.570139,0.000000,137.5,123.22,30,0.347278,0.000000,20.9769,0.000000,1.000000,0.587174,17.863,
7.625000,9.568393,0.000000,139.375,125.1,30,0.342558,0.000000,20.9101,0.000000,1.000000,0.581027,17.676,
7.750000,9.566648,0.000000,141.25,126.99,30,0.338220,0.000000,20.8496,0.000000,1.000000,0.575472,17.507,
7.875000,9.564902,0.000000,143.125,128.88,30,0.334307,0.000000,20.7961,0.000000,1.000000,0.570574,17.358,
8.000000,9.563375,0.000000,145,130.78,30,0.330751,0.000000,20.7484,0.000000,1.000000,0.566235,17.226,
8.125000,9.562065,0.000000,146.875,132.68,30,0.327764,0.000000,20.7103,0.000000,1.000000,0.562816,17.122,
8.250000,9.560538,0.000000,148.75,134.57,30,0.325471,0.000000,20.6843,0.000000,1.000000,0.560548,17.053,
8.375000,9.559011,0.000000,150.625,136.47,30,0.323696,0.000000,20.6673,0.000000,1.000000,0.559135,17.01,
8.500000,9.557483,0.000000,152.5,138.37,30,0.322339,0.000000,20.6574,0.000000,1.000000,0.558412,16.988,
8.625000,9.556174,0.000000,154.375,140.27,30,0.321359,0.000000,20.6541,0.000000,1.000000,0.558313,16.985,
8.750000,9.555083,0.000000,156.25,142.17,30,0.320849,0.000000,20.6591,0.000000,1.000000,0.559003,17.006,
8.875000,9.554210,0.000000,158.125,144.07,30,0.320611,0.000000,20.6688,0.000000,1.000000,0.560154,17.041,
9.000000,9.553119,0.000000,160,145.96,30,0.320498,0.000000,20.6806,0.000000,1.000000,0.561502,17.082,
9.125000,9.551810,0.000000,161.875,147.86,30,0.320695,0.000000,20.6979,0.000000,1.000000,0.563375,17.139,
9.250000,9.550501,0.000000,163.75,149.76,30,0.320975,0.000000,20.7165,0.000000,1.000000,0.565380,17.2,
9.375000,9.549410,0.000000,165.625,151.65,30,0.321504,0.000000,20.7396,0.000000,1.000000,0.567813,17.274,
9.500000,9.548319,0.000000,167.5,153.55,30,0.322057,0.000000,20.763,0.000000,1.000000,0.570278,17.349,
9.625000,9.547664,0.000000,169.375,155.44,30,0.322971,0.000000,20.7929,0.000000,1.000000,0.573368,17.443,
9.750000,9.547009,0.000000,171.25,157.33,30,0.323868,0.000000,20.8224,0.000000,1.000000,0.576425,17.536,
9.875000,9.545918,0.000000,173.125,159.23,30,0.324865,0.000000,20.8537,0.000000,1.000000,0.579646,17.634,
10,9.545046,0.000000,175,161.12,30,0.325773,0.000000,20.8832,0.000000,1.000000,0.582703,17.727,
10.125,9.543736,0.000000,176.875,163.01,30,0.326632,0.000000,20.9117,0.000000,1.000000,0.585662,17.817,
10.25,9.542645,0.000000,178.75,164.9,30,0.327623,0.000000,20.9426,0.000000,1.000000,0.588850,17.914,
10.375,9.541554,0.000000,180.625,166.78,30,0.328711,0.000000,20.9752,0.000000,1.000000,0.592203,18.016,
10.5,9.540900,0.000000,182.5,168.67,30,0.329889,0.000000,21.0094,0.000000,1.000000,0.595720,18.123,
10.625,9.540245,0.000000,184.375,170.55,30,0.331003,0.000000,21.0424,0.000000,1.000000,0.599106,18.226,
10.75,9.539591,0.000000,186.25,172.43,30,0.332190,0.000000,21.0766,0.000000,1.000000,0.602623,18.333,
10.875,9.538500,0.000000,188.125,174.31,30,0.333489,0.000000,21.1129,0.000000,1.000000,0.606338,18.446,
11,9.537845,0.000000,190,176.19,30,0.334825,0.000000,21.1499,0.000000,1.000000,0.610118,18.561,
11.125,9.536972,0.000000,191.875,178.06,30,0.336112,0.000000,21.1858,0.000000,1.000000,0.613799,18.673,
11.25,9.536099,0.000000,193.75,179.94,30,0.337400,0.000000,21.2217,0.000000,1.000000,0.617481,18.785,
11.375,9.535227,0.000000,195.625,181.81,30,0.338814,0.000000,21.26,0.000000,1.000000,0.621392,18.904,
11.5,9.534354,0.000000,197.5,183.69,30,0.340322,0.000000,21.3,0.000000,1.000000,0.625468,19.028,
11.625,9.533699,0.000000,199.375,185.56,30,0.341866,0.000000,21.3407,0.000000,1.000000,0.629610,19.154,
11.75,9.532826,0.000000,201.25,187.43,30,0.343195,0.000000,21.3773,0.000000,1.000000,0.633357,19.268,
11.875,9.531953,0.000000,203.125,189.3,30,0.344456,0.000000,21.4125,0.000000,1.000000,0.636973,19.378,
12,9.530862,0.000000,205,191.17,30,0.345931,0.000000,21.4517,0.000000,1.000000,0.640983,19.5,
12.125,9.529990,0.000000,206.875,193.04,30,0.347515,0.000000,21.493,0.000000,1.000000,0.645191,19.628,
12.25,9.529335,0.000000,208.75,194.92,30,0.349047,0.000000,21.5333,0.000000,1.000000,0.649300,19.753,
12.375,9.528244,0.000000,210.625,196.79,30,0.350684,0.000000,21.5756,0.000000,1.000000,0.653606,19.884,
12.5,9.527371,0.000000,212.5,198.66,30,0.352339,0.000000,21.6182,0.000000,1.000000,0.657945,20.016,
12.625,9.526062,0.000000,214.375,200.53,30,0.354068,0.000000,21.6621,0.000000,1.000000,0.662415,20.152,
12.75,9.524753,0.000000,216.25,202.4,30,0.355882,0.000000,21.7078,0.000000,1.000000,0.667050,20.293,
12.875,9.523662,0.000000,218.125,204.27,30,0.358099,0.000000,21.7612,0.000000,1.000000,0.672441,20.457,
13,9.522571,0.000000,220,206.14,30,0.360226,0.000000,21.8129,0.000000,1.000000,0.677667,20.616,
13.125,9.521480,0.000000,221.875,208.01,30,0.362267,0.000000,21.8629,0.000000,1.000000,0.682730,20.77,
13.25,9.520171,0.000000,223.75,209.88,30,0.364219,0.000000,21.9112,0.000000,1.000000,0.687627,20.919,
13.375,9.518861,0.000000,225.625,211.75,30,0.366465,0.000000,21.9652,0.000000,1.000000,0.693084,21.085,
13.5,9.517334,0.000000,227.5,213.62,30,0.369040,0.000000,22.0256,0.000000,1.000000,0.699165,21.27,
13.625,9.515807,0.000000,229.375,215.49,30,0.371663,0.000000,22.087,0.000000,1.000000,0.705345,21.458,
13.75,9.514061,0.000000,231.25,217.36,30,0.374252,0.000000,22.1478,0.000000,1.000000,0.711459,21.644,
13.875,9.512315,0.000000,233.125,219.23,30,0.376940,0.000000,22.2105,0.000000,1.000000,0.717770,21.836,
14,9.510351,0.000000,235,221.1,30,0.379591,0.000000,22.2725,0.000000,1.000000,0.724016,22.026,
14.125,9.508388,0.000000,236.875,222.97,30,0.382513,0.000000,22.34,0.000000,1.000000,0.730787,22.232,
14.25,9.506206,0.000000,238.75,224.84,30,0.385537,0.000000,22.4094,0.000000,1.000000,0.737756,22.444,
14.375,9.504024,0.000000,240.625,226.72,30,0.388471,0.000000,22.4771,0.000000,1.000000,0.744560,22.651,
14.5,9.501842,0.000000,242.5,228.59,30,0.391282,0.000000,22.5424,0.000000,1.000000,0.751134,22.851,
14.625,9.499441,0.000000,244.375,230.46,30,0.393730,0.000000,22.6007,0.000000,1.000000,0.757018,23.03,
14.75,9.497041,0.000000,246.25,232.33,30,0.395972,0.000000,22.6548,0.000000,1.000000,0.762507,23.197,
14.875,9.494204,0.000000,248.125,234.2,30,0.398232,0.000000,22.7093,0.000000,1.000000,0.768030,23.365,
15,9.491586,0.000000,250,236.07,30,0.400113,0.000000,22.7564,0.000000,1.000000,0.772829,23.511,
15.125,9.488968,0.000000,251.875,237.95,30,0.401894,0.000000,22.8015,0.000000,1.000000,0.777431,23.651,
15.25,9.486567,0.000000,253.75,239.82,30,0.403318,0.000000,22.8395,0.000000,1.000000,0.781342,23.77,
15.375,9.484167,0.000000,255.625,241.7,30,0.404524,0.000000,22.8731,0.000000,1.000000,0.784827,23.876,
15.5,9.481767,0.000000,257.5,243.57,30,0.405683,0.000000,22.9057,0.000000,1.000000,0.788212,23.979,
15.625,9.478930,0.000000,259.375,245.44,30,0.406875,0.000000,22.9389,0.000000,1.000000,0.791664,24.084,
15.75,9.476094,0.000000,261.25,247.32,30,0.408104,0.000000,22.9729,0.000000,1.000000,0.795181,24.191,
15.875,9.472821,0.000000,263.125,249.19,30,0.409302,0.000000,23.0061,0.000000,1.000000,0.798633,24.296,
16,9.469766,0.000000,265,251.07,30,0.410502,0.000000,23.0394,0.000000,1.000000,0.802084,24.401,
16.125,9.466711,0.000000,266.875,252.94,30,0.411703,0.000000,23.0727,0.000000,1.000000,0.805535,24.506,
16.25,9.463656,0.000000,268.75,254.82,30,0.412941,0.000000,23.1066,0.000000,1.000000,0.809053,24.613,
16.375,9.460165,0.000000,270.625,256.69,30,0.414280,0.000000,23.1426,0.000000,1.000000,0.812767,24.726,
16.5,9.456455,0.000000,272.5,258.56,30,0.415539,0.000000,23.1769,0.000000,1.000000,0.816317,24.834,
16.625,9.452528,0.000000,274.375,260.44,30,0.416882,0.000000,23.2129,0.000000,1.000000,0.820032,24.947,
16.75,9.448382,0.000000,276.25,262.31,30,0.418494,0.000000,23.2542,0.000000,1.000000,0.824272,25.076,
16.875,9.444018,0.000000,278.125,264.18,30,0.420025,0.000000,23.2939,0.000000,1.000000,0.828348,25.2,
17,9.439436,0.000000,280,266.06,30,0.421355,0.000000,23.3295,0.000000,1.000000,0.832029,25.312,
17.125,9.434199,0.000000,281.875,267.93,30,0.422837,0.000000,23.3682,0.000000,1.000000,0.836007,25.433,
17.25,9.428744,0.000000,283.75,269.81,30,0.424734,0.000000,23.4152,0.000000,1.000000,0.840806,25.579,
17.375,9.422852,0.000000,285.625,271.68,30,0.426732,0.000000,23.4643,0.000000,1.000000,0.845802,25.731,
17.5,9.416743,0.000000,287.5,273.55,30,0.428583,0.000000,23.5104,0.000000,1.000000,0.850503,25.874,
17.625,9.409760,0.000000,289.375,275.42,30,0.430678,0.000000,23.5614,0.000000,1.000000,0.855697,26.032,
17.75,9.402123,0.000000,291.25,277.3,30,0.433072,0.000000,23.6185,0.000000,1.000000,0.861482,26.208,
17.875,9.394050,0.000000,293.125,279.17,30,0.435366,0.000000,23.6736,0.000000,1.000000,0.867070,26.378,
18,9.385321,0.000000,295,281.04,30,0.437792,0.000000,23.7314,0.000000,1.000000,0.872921,26.556,
18.125,9.376375,0.000000,296.875,282.91,30,0.440662,0.000000,23.7982,0.000000,1.000000,0.879659,26.761,
18.25,9.366774,0.000000,298.75,284.78,30,0.443724,0.000000,23.869,0.000000,1.000000,0.886792,26.978,
18.375,9.356301,0.000000,300.625,286.65,30,0.446852,0.000000,23.9411,0.000000,1.000000,0.894057,27.199,
18.5,9.344299,0.000000,302.5,288.52,30,0.450224,0.000000,24.0183,0.000000,1.000000,0.901814,27.435,
18.625,9.330553,0.000000,304.375,290.4,30,0.453903,0.000000,24.1018,0.000000,1.000000,0.910197,27.69,
18.75,9.317242,0.000000,306.25,292.27,30,0.457741,0.000000,24.1886,0.000000,1.000000,0.918907,27.955,
18.875,9.301532,0.000000,308.125,294.13,30,0.462019,0.000000,24.2845,0.000000,1.000000,0.928506,28.247,
19,9.284512,0.000000,310,296,30,0.466699,0.000000,24.3887,0.000000,1.000000,0.938926,28.564,
19.125,9.264219,0.000000,311.875,297.87,30,0.472142,0.000000,24.5086,0.000000,1.000000,0.950891,28.928,
19.25,9.243926,0.000000,313.75,299.74,30,0.478424,0.000000,24.6459,0.000000,1.000000,0.964565,29.344,
19.375,9.219706,0.000000,315.625,301.61,30,0.485919,0.000000,24.8082,0.000000,1.000000,0.980705,29.835,
19.5,9.192212,0.000000,317.5,303.47,30,0.494737,0.000000,24.9978,0.000000,1.000000,0.999540,30.408,
19.625,9.164937,0.000000,319.375,305.33,30,0.505249,0.000000,25.2225,0.000000,1.000000,1.021826,31.086,
19.75,9.131552,0.000000,321.25,307.19,30,0.518421,0.000000,25.5023,0.000000,1.000000,1.049537,31.929,
19.875,9.091185,0.000000,323.125,309.05,30,0.534186,0.000000,25.8357,0.000000,1.000000,1.082539,32.933,
20,9.045580,0.000000,325,310.9,30,0.551899,0.000000,26.2099,0.000000,1.000000,1.119552,34.059,
20.125,8.991903,0.000000,326.875,312.75,30,0.575054,0.000000,26.6967,0.000000,1.000000,1.167675,35.523,
20.25,8.929933,0.000000,328.75,314.59,30,0.603054,0.000000,27.2842,0.000000,1.000000,1.225725,37.289,
20.375,8.857926,0.000000,330.625,316.43,30,0.635723,0.000000,27.9691,0.000000,1.000000,1.293373,39.347,
20.5,8.773700,0.000000,332.5,318.26,30,0.675048,0.000000,28.7925,0.000000,1.000000,1.374696,41.821,
20.625,8.675073,0.000000,334.375,320.08,30,0.720321,0.000000,29.7402,0.000000,1.000000,1.468280,44.668,
20.75,8.560735,0.000000,336.25,321.89,30,0.773282,0.000000,30.8484,0.000000,1.000000,1.577707,47.997,
20.875,8.428504,0.000000,338.125,323.7,30,0.832108,0.000000,32.0798,0.000000,1.000000,1.699297,51.696,
21,8.276635,0.000000,340,325.5,30,0.897441,0.000000,33.4479,0.000000,1.000000,1.834396,55.806,
21.125,8.102728,0.000000,341.875,327.29,30,0.969492,0.000000,34.9573,0.000000,1.000000,1.983466,60.341,
21.25,7.905255,0.000000,343.75,329.08,30,1.046123,0.000000,36.5641,0.000000,1.000000,2.142167,65.169,
21.375,7.682252,0.000000,345.625,330.86,30,1.128564,0.000000,38.2938,0.000000,1.000000,2.313030,70.367,
21.5,7.432410,0.000000,347.5,332.64,30,1.213748,0.000000,40.0831,0.000000,1.000000,2.489810,75.745,
21.625,7.154202,0.000000,349.375,334.42,30,1.300360,0.000000,41.9046,0.000000,1.000000,2.669811,81.221,
21.75,6.847191,0.000000,351.25,336.19,30,1.386177,0.000000,43.712,0.000000,1.000000,2.848465,86.656,
21.875,6.511160,0.000000,353.125,337.97,30,1.470090,0.000000,45.4823,0.000000,1.000000,3.023503,91.981,
22,6.148071,0.000000,355,339.76,30,1.548389,0.000000,47.138,0.000000,1.000000,3.187266,96.963,
22.125,5.760107,0.000000,356.875,341.56,30,1.616986,0.000000,48.5935,0.000000,1.000000,3.331306,101.345,
22.25,5.351632,0.000000,358.75,343.38,30,1.671742,0.000000,49.7618,0.000000,1.000000,3.447045,104.866,
22.375,4.927883,0.000000,360.625,345.22,30,1.710590,0.000000,50.5993,0.000000,1.000000,3.530143,107.394,
22.5,4.496497,0.000000,362.5,347.08,30,1.730617,0.000000,51.0443,0.000000,1.000000,3.574518,108.744,
22.625,4.066420,0.000000,364.375,348.96,30,1.728611,0.000000,51.0285,0.000000,1.000000,3.573401,108.71,
22.75,3.647689,0.000000,366.25,350.88,30,1.702323,0.000000,50.5041,0.000000,1.000000,3.522056,107.148,
22.875,3.250343,0.000000,368.125,352.83,30,1.649865,0.000000,49.4303,0.000000,1.000000,3.416442,103.935,
23,2.880926,0.000000,370,354.81,30,1.570979,0.000000,47.8004,0.000000,1.000000,3.255867,99.05,
23.125,2.550786,0.000000,371.875,356.82,30,1.467931,0.000000,45.6608,0.000000,1.000000,3.044902,92.632,
23.25,2.267341,0.000000,373.75,358.86,30,1.343314,0.000000,43.065,0.000000,1.000000,2.788804,84.841,
23.375,2.033646,0.000000,375.625,360.92,30,1.200627,0.000000,40.0852,0.000000,1.000000,2.494708,75.894,
23.5,1.850356,0.000000,377.5,362.98,30,1.046035,0.000000,36.8505,0.000000,1.000000,2.175334,66.178,
23.625,1.715725,0.000000,379.375,365.06,30,0.890442,0.000000,33.5898,0.000000,1.000000,1.853330,56.382,
23.75,1.623426,0.000000,381.25,367.12,30,0.740326,0.000000,30.4398,0.000000,1.000000,1.542173,46.916,
23.875,1.560365,0.000000,383.125,369.15,30,0.610541,0.000000,27.7138,0.000000,1.000000,1.272862,38.723,
24,1.517816,0.000000,385,371.16,30,0.505848,0.000000,25.5134,0.000000,1.000000,1.055453,32.109,
24.125,1.487049,0.000000,386.875,373.12,30,0.433147,0.000000,23.9854,0.000000,1.000000,0.904477,27.516,
24.25,1.462611,0.000000,388.75,375.06,30,0.381799,0.000000,22.9064,0.000000,1.000000,0.797877,24.273,
24.375,1.442318,0.000000,390.625,376.97,30,0.346771,0.000000,22.1711,0.000000,1.000000,0.725232,22.063,
24.5,1.424643,0.000000,392.5,378.86,30,0.325039,0.000000,21.7162,0.000000,1.000000,0.680297,20.696,
24.625,1.408933,0.000000,394.375,380.73,30,0.305571,0.000000,21.3085,0.000000,1.000000,0.640030,19.471,
24.75,1.394313,0.000000,396.25,382.6,30,0.294430,0.000000,21.0767,0.000000,1.000000,0.617152,18.775,
24.875,1.380785,0.000000,398.125,384.45,30,0.287319,0.000000,20.93,0.000000,1.000000,0.602689,18.335,
25,1.368129,0.000000,400,386.31,30,0.283774,0.000000,20.8588,0.000000,1.000000,0.595687,18.122,
25.125,1.356128,0.000000,401.875,388.16,30,0.282317,0.000000,20.8318,0.000000,1.000000,0.593058,18.042,
25.25,1.344345,0.000000,403.75,390,30,0.281723,0.000000,20.823,0.000000,1.000000,0.592236,18.017,
25.375,1.333217,0.000000,405.625,391.85,30,0.282022,0.000000,20.8333,0.000000,1.000000,0.593288,18.049,
25.5,1.322307,0.000000,407.5,393.7,30,0.282930,0.000000,20.8565,0.000000,1.000000,0.595622,18.12,
25.625,1.311833,0.000000,409.375,395.55,30,0.284603,0.000000,20.896,0.000000,1.000000,0.599566,18.24,
25.75,1.301795,0.000000,411.25,397.4,30,0.287661,0.000000,20.965,0.000000,1.000000,0.606436,18.449,
25.875,1.292413,0.000000,413.125,399.25,30,0.291386,0.000000,21.0484,0.000000,1.000000,0.614720,18.701,
26,1.284558,0.000000,415,401.11,30,0.295184,0.000000,21.1334,0.000000,1.000000,0.623167,18.958,
26.125,1.275611,0.000000,416.875,402.96,30,0.299103,0.000000,21.2211,0.000000,1.000000,0.631878,19.223,
26.25,1.267538,0.000000,418.75,404.82,30,0.302907,0.000000,21.3064,0.000000,1.000000,0.640359,19.481,
26.375,1.259464,0.000000,420.625,406.68,30,0.306660,0.000000,21.3908,0.000000,1.000000,0.648741,19.736,
26.5,1.250736,0.000000,422.5,408.54,30,0.310519,0.000000,21.4775,0.000000,1.000000,0.657353,19.998,
26.625,1.243972,0.000000,424.375,410.4,30,0.314496,0.000000,21.5669,0.000000,1.000000,0.666228,20.268,
26.75,1.236989,0.000000,426.25,412.27,30,0.318391,0.000000,21.6546,0.000000,1.000000,0.674939,20.533,
26.875,1.229352,0.000000,428.125,414.13,30,0.322607,0.000000,21.7493,0.000000,1.000000,0.684340,20.819,
27,1.222588,0.000000,430,416,30,0.327051,0.000000,21.849,0.000000,1.000000,0.694234,21.12,
27.125,1.215606,0.000000,431.875,417.87,30,0.331922,0.000000,21.9579,0.000000,1.000000,0.705049,21.449,
27.25,1.209059,0.000000,433.75,419.74,30,0.337020,0.000000,22.0719,0.000000,1.000000,0.716357,21.793,
27.375,1.202513,0.000000,435.625,421.6,30,0.342265,0.000000,22.1892,0.000000,1.000000,0.727993,22.147,
27.5,1.196622,0.000000,437.5,423.48,30,0.347753,0.000000,22.3119,0.000000,1.000000,0.740155,22.517,
27.625,1.190730,0.000000,439.375,425.35,30,0.353233,0.000000,22.4345,0.000000,1.000000,0.752317,22.887,
27.75,1.185275,0.000000,441.25,427.22,30,0.358614,0.000000,22.5552,0.000000,1.000000,0.764282,23.251,
27.875,1.180039,0.000000,443.125,429.09,30,0.363867,0.000000,22.6732,0.000000,1.000000,0.775984,23.607,
28,1.174583,0.000000,445,430.96,30,0.369374,0.000000,22.7969,0.000000,1.000000,0.788245,23.98,
28.125,1.169128,0.000000,446.875,432.83,30,0.374999,0.000000,22.9233,0.000000,1.000000,0.800769,24.361,
28.25,1.164110,0.000000,448.75,434.7,30,0.380647,0.000000,23.0503,0.000000,1.000000,0.813359,24.744,
28.375,1.159091,0.000000,450.625,436.57,30,0.386413,0.000000,23.18,0.000000,1.000000,0.826211,25.135,
28.5,1.154072,0.000000,452.5,438.44,30,0.391987,0.000000,23.3058,0.000000,1.000000,0.838669,25.514,
28.625,1.149054,0.000000,454.375,440.32,30,0.397601,0.000000,23.4326,0.000000,1.000000,0.851226,25.896,
28.75,1.144035,0.000000,456.25,442.19,30,0.403285,0.000000,23.561,0.000000,1.000000,0.863947,26.283,
28.875,1.139017,0.000000,458.125,444.06,30,0.409085,0.000000,23.6921,0.000000,1.000000,0.876931,26.678,
29,1.133998,0.000000,460,445.93,30,0.414833,0.000000,23.8223,0.000000,1.000000,0.889817,27.07,
29.125,1.129634,0.000000,461.875,447.8,30,0.420728,0.000000,23.9558,0.000000,1.000000,0.903031,27.472,
29.25,1.125270,0.000000,463.75,449.67,30,0.426417,0.000000,24.085,0.000000,1.000000,0.915818,27.861,
29.375,1.120906,0.000000,465.625,451.55,30,0.432129,0.000000,24.2149,0.000000,1.000000,0.928670,28.252,
29.5,1.116542,0.000000,467.5,453.42,30,0.437881,0.000000,24.3458,0.000000,1.000000,0.941621,28.646,
29.625,1.111959,0.000000,469.375,455.29,30,0.443903,0.000000,24.4827,0.000000,1.000000,0.955164,29.058,
29.75,1.108032,0.000000,471.25,457.16,30,0.449932,0.000000,24.62,0.000000,1.000000,0.968740,29.471,
29.875,1.103886,0.000000,473.125,459.03,30,0.456031,0.000000,24.759,0.000000,1.000000,0.982480,29.889,
30,1.100176,0.000000,475,460.89,30,0.462291,0.000000,24.9017,0.000000,1.000000,0.996581,30.318,
30.125,1.096031,0.000000,476.875,462.76,30,0.468391,0.000000,25.041,0.000000,1.000000,1.010354,30.737,
30.25,1.092103,0.000000,478.75,464.63,30,0.474590,0.000000,25.1828,0.000000,1.000000,1.024357,31.163,
30.375,1.087957,0.000000,480.625,466.5,30,0.480783,0.000000,25.3245,0.000000,1.000000,1.038360,31.589,
30.5,1.084248,0.000000,482.5,468.37,30,0.487167,0.000000,25.4707,0.000000,1.000000,1.052791,32.028,
30.625,1.080538,0.000000,484.375,470.24,30,0.493894,0.000000,25.6244,0.000000,1.000000,1.067977,32.49,
30.75,1.076829,0.000000,486.25,472.11,30,0.500673,0.000000,25.7796,0.000000,1.000000,1.083295,32.956,
30.875,1.073119,0.000000,488.125,473.97,30,0.507611,0.000000,25.9385,0.000000,1.000000,1.098974,33.433,
31,1.069192,0.000000,490,475.84,30,0.514330,0.000000,26.0927,0.000000,1.000000,1.114194,33.896,
31.125,1.065264,0.000000,491.875,477.71,30,0.521222,0.000000,26.251,0.000000,1.000000,1.129807,34.371,
31.25,1.061555,0.000000,493.75,479.57,30,0.528093,0.000000,26.409,0.000000,1.000000,1.145388,34.845,
31.375,1.058063,0.000000,495.625,481.44,30,0.535258,0.000000,26.5737,0.000000,1.000000,1.161626,35.339,
31.5,1.054790,0.000000,497.5,483.31,30,0.542385,0.000000,26.7377,0.000000,1.000000,1.177799,35.831,
31.625,1.051517,0.000000,499.375,485.18,30,0.549639,0.000000,26.9048,0.000000,1.000000,1.194267,36.332,
31.75,1.048026,0.000000,501.25,487.04,30,0.556871,0.000000,27.0716,0.000000,1.000000,1.210703,36.832,
31.875,1.044753,0.000000,503.125,488.91,30,0.564139,0.000000,27.2395,0.000000,1.000000,1.227237,37.335,
32,1.041698,0.000000,505,490.77,30,0.571581,0.000000,27.4114,0.000000,1.000000,1.244165,37.85,
32.125,1.038862,0.000000,506.875,492.64,30,0.579286,0.000000,27.5894,0.000000,1.000000,1.261686,38.383,
32.25,1.035807,0.000000,508.75,494.51,30,0.586876,0.000000,27.765,0.000000,1.000000,1.278976,38.909,
32.375,1.032752,0.000000,510.625,496.37,30,0.594759,0.000000,27.9474,0.000000,1.000000,1.296923,39.455,
32.5,1.029479,0.000000,512.5,498.24,30,0.602603,0.000000,28.1292,0.000000,1.000000,1.314805,39.999,
32.625,1.026206,0.000000,514.375,500.1,30,0.610724,0.000000,28.3174,0.000000,1.000000,1.333311,40.562,
32.75,1.023369,0.000000,516.25,501.97,30,0.618656,0.000000,28.5016,0.000000,1.000000,1.351423,41.113,
32.875,1.020096,0.000000,518.125,503.83,30,0.626518,0.000000,28.6846,0.000000,1.000000,1.369404,41.66,
33,1.017260,0.000000,520,505.7,30,0.634431,0.000000,28.8689,0.000000,1.000000,1.387516,42.211,
33.125,1.014205,0.000000,521.875,507.56,30,0.642456,0.000000,29.056,0.000000,1.000000,1.405890,42.77,
33.25,1.011150,0.000000,523.75,509.43,30,0.650667,0.000000,29.2475,0.000000,1.000000,1.424693,43.342,
33.375,1.008531,0.000000,525.625,511.29,30,0.659017,0.000000,29.4424,0.000000,1.000000,1.443824,43.924,
33.5,1.005477,0.000000,527.5,513.16,30,0.667539,0.000000,29.6413,0.000000,1.000000,1.463349,44.518,
33.625,1.002640,0.000000,529.375,515.02,30,0.676021,0.000000,29.8397,0.000000,1.000000,1.482808,45.11,
33.75,0.999803,0.000000,531.25,516.89,30,0.684492,0.000000,30.0382,0.000000,1.000000,1.502268,45.702,
33.875,0.996749,0.000000,533.125,518.76,30,0.693179,0.000000,30.2417,0.000000,1.000000,1.522221,46.309,
34,0.993912,0.000000,535,520.62,30,0.701571,0.000000,30.439,0.000000,1.000000,1.541549,46.897,
34.125,0.991293,0.000000,536.875,522.49,30,0.710238,0.000000,30.6427,0.000000,1.000000,1.561502,47.504,
34.25,0.988239,0.000000,538.75,524.35,30,0.719014,0.000000,30.8491,0.000000,1.000000,1.581717,48.119,
34.375,0.985402,0.000000,540.625,526.22,30,0.727602,0.000000,31.0516,0.000000,1.000000,1.601538,48.722,
34.5,0.982565,0.000000,542.5,528.08,30,0.736462,0.000000,31.2606,0.000000,1.000000,1.621984,49.344,
34.625,0.979729,0.000000,544.375,529.95,30,0.745282,0.000000,31.4689,0.000000,1.000000,1.642364,49.964,
34.75,0.977110,0.000000,546.25,531.81,30,0.754421,0.000000,31.6847,0.000000,1.000000,1.663467,50.606,
34.875,0.974492,0.000000,548.125,533.68,30,0.763475,0.000000,31.899,0.000000,1.000000,1.684406,51.243,
35,0.971873,0.000000,550,535.54,30,0.772667,0.000000,32.1166,0.000000,1.000000,1.705674,51.89,
35.125,0.969037,0.000000,551.875,537.4,30,0.782055,0.000000,32.339,0.000000,1.000000,1.727401,52.551,
35.25,0.966200,0.000000,553.75,539.27,30,0.791345,0.000000,32.5596,0.000000,1.000000,1.748932,53.206,
35.375,0.963582,0.000000,555.625,541.13,30,0.800549,0.000000,32.7785,0.000000,1.000000,1.770298,53.856,
35.5,0.960527,0.000000,557.5,543,30,0.809638,0.000000,32.9953,0.000000,1.000000,1.791434,54.499,
35.625,0.957472,0.000000,559.375,544.86,30,0.818449,0.000000,33.2061,0.000000,1.000000,1.811978,55.124,
35.75,0.954417,0.000000,561.25,546.73,30,0.827503,0.000000,33.4228,0.000000,1.000000,1.833081,55.766,
35.875,0.951799,0.000000,563.125,548.59,30,0.836515,0.000000,33.6389,0.000000,1.000000,1.854119,56.406,
36,0.949617,0.000000,565,550.46,30,0.845607,0.000000,33.8571,0.000000,1.000000,1.875353,57.052,
36.125,0.947435,0.000000,566.875,552.32,30,0.854806,0.000000,34.078,0.000000,1.000000,1.896851,57.706,
36.25,0.945035,0.000000,568.75,554.19,30,0.864082,0.000000,34.3012,0.000000,1.000000,1.918546,58.366,
36.375,0.942198,0.000000,570.625,556.05,30,0.873305,0.000000,34.5234,0.000000,1.000000,1.940142,59.023,
36.5,0.939361,0.000000,572.5,557.92,30,0.882634,0.000000,34.7484,0.000000,1.000000,1.962001,59.688,
36.625,0.936525,0.000000,574.375,559.78,30,0.891790,0.000000,34.9699,0.000000,1.000000,1.983499,60.342,
36.75,0.933906,0.000000,576.25,561.64,30,0.901082,0.000000,35.1948,0.000000,1.000000,2.005325,61.006,
36.875,0.931506,0.000000,578.125,563.51,30,0.910423,0.000000,35.4212,0.000000,1.000000,2.027283,61.674,
37,0.929106,0.000000,580,565.37,30,0.919900,0.000000,35.6511,0.000000,1.000000,2.049569,62.352,
37.125,0.926487,0.000000,581.875,567.23,30,0.929380,0.000000,35.8814,0.000000,1.000000,2.071889,63.031,
37.25,0.923869,0.000000,583.75,569.1,30,0.938658,0.000000,36.1076,0.000000,1.000000,2.093781,63.697,
37.375,0.921251,0.000000,585.625,570.96,30,0.947910,0.000000,36.3335,0.000000,1.000000,2.115640,64.362,
37.5,0.918632,0.000000,587.5,572.83,30,0.956988,0.000000,36.556,0.000000,1.000000,2.137138,65.016,
37.625,0.916232,0.000000,589.375,574.69,30,0.966158,0.000000,36.7809,0.000000,1.000000,2.158865,65.677,
37.75,0.913613,0.000000,591.25,576.56,30,0.975435,0.000000,37.0086,0.000000,1.000000,2.180856,66.346,
37.875,0.911213,0.000000,593.125,578.42,30,0.984686,0.000000,37.2361,0.000000,1.000000,2.202814,67.014,
38,0.908595,0.000000,595,580.29,30,0.993576,0.000000,37.4558,0.000000,1.000000,2.223983,67.658,
38.125,0.906195,0.000000,596.875,582.15,30,1.002671,0.000000,37.6806,0.000000,1.000000,2.245645,68.317,
38.25,0.903794,0.000000,598.75,584.02,30,1.011655,0.000000,37.9032,0.000000,1.000000,2.267076,68.969,
38.375,0.901394,0.000000,600.625,585.88,30,1.020540,0.000000,38.124,0.000000,1.000000,2.288311,69.615,
38.5,0.898776,0.000000,602.5,587.75,30,1.029135,0.000000,38.3386,0.000000,1.000000,2.308921,70.242,
38.625,0.896157,0.000000,604.375,589.61,30,1.037471,0.000000,38.5476,0.000000,1.000000,2.328972,70.852,
38.75,0.893757,0.000000,606.25,591.48,30,1.045797,0.000000,38.7568,0.000000,1.000000,2.349024,71.462,
38.875,0.891357,0.000000,608.125,593.34,30,1.054067,0.000000,38.9652,0.000000,1.000000,2.368976,72.069,
39,0.888738,0.000000,610,595.21,30,1.062226,0.000000,39.1713,0.000000,1.000000,2.388699,72.669,
39.125,0.886120,0.000000,611.875,597.08,30,1.070082,0.000000,39.371,0.000000,1.000000,2.407764,73.249,
39.25,0.883502,0.000000,613.75,598.94,30,1.077799,0.000000,39.5677,0.000000,1.000000,2.426533,73.82,
39.375,0.880883,0.000000,615.625,600.81,30,1.085125,0.000000,39.7559,0.000000,1.000000,2.444448,74.365,
39.5,0.878265,0.000000,617.5,602.67,30,1.092531,0.000000,39.9463,0.000000,1.000000,2.462560,74.916,
39.625,0.875646,0.000000,619.375,604.54,30,1.099911,0.000000,40.1365,0.000000,1.000000,2.480639,75.466,
39.75,0.873464,0.000000,621.25,606.41,30,1.106860,0.000000,40.3172,0.000000,1.000000,2.497765,75.987,
39.875,0.870846,0.000000,623.125,608.28,30,1.113597,0.000000,40.4933,0.000000,1.000000,2.514430,76.494,
40,0.868882,0.000000,625,610.15,30,1.120091,0.000000,40.6642,0.000000,1.000000,2.530570,76.985,
40.125,0.866918,0.000000,626.875,612.01,30,1.126373,0.000000,40.8305,0.000000,1.000000,2.546249,77.462,
40.25,0.864736,0.000000,628.75,613.88,30,1.132678,0.000000,40.9977,0.000000,1.000000,2.561995,77.941,
40.375,0.862336,0.000000,630.625,615.75,30,1.138946,0.000000,41.1643,0.000000,1.000000,2.577674,78.418,
40.5,0.859717,0.000000,632.5,617.62,30,1.144898,0.000000,41.3241,0.000000,1.000000,2.592663,78.874,
40.625,0.857317,0.000000,634.375,619.49,30,1.150701,0.000000,41.4807,0.000000,1.000000,2.607324,79.32,
40.75,0.854699,0.000000,636.25,621.36,30,1.156523,0.000000,41.6381,0.000000,1.000000,2.622050,79.768,
40.875,0.852080,0.000000,638.125,623.23,30,1.162193,0.000000,41.7923,0.000000,1.000000,2.636447,80.206,
41,0.849680,0.000000,640,625.09,30,1.167580,0.000000,41.9402,0.000000,1.000000,2.650220,80.625,
41.125,0.847498,0.000000,641.875,626.96,30,1.172932,0.000000,42.0876,0.000000,1.000000,2.663927,81.042,
41.25,0.845534,0.000000,643.75,628.83,30,1.178348,0.000000,42.2369,0.000000,1.000000,2.677799,81.464,
41.375,0.843789,0.000000,645.625,630.7,30,1.183800,0.000000,42.3874,0.000000,1.000000,2.691769,81.889,
41.5,0.841825,0.000000,647.5,632.57,30,1.188958,0.000000,42.5313,0.000000,1.000000,2.705082,82.294,
41.625,0.839861,0.000000,649.375,634.45,30,1.193976,0.000000,42.6723,0.000000,1.000000,2.718099,82.69,
41.75,0.837679,0.000000,651.25,636.32,30,1.198917,0.000000,42.8118,0.000000,1.000000,2.730951,83.081,
41.875,0.835061,0.000000,653.125,638.19,30,1.203880,0.000000,42.9521,0.000000,1.000000,2.743870,83.474,
42,0.832442,0.000000,655,640.06,30,1.208793,0.000000,43.0916,0.000000,1.000000,2.756689,83.864,
42.125,0.830042,0.000000,656.875,641.93,30,1.213568,0.000000,43.2282,0.000000,1.000000,2.769213,84.245,
42.25,0.827642,0.000000,658.75,643.8,30,1.218037,0.000000,43.3579,0.000000,1.000000,2.781047,84.605,
42.375,0.825241,0.000000,660.625,645.67,30,1.222327,0.000000,43.4837,0.000000,1.000000,2.792486,84.953,
42.5,0.822841,0.000000,662.5,647.54,30,1.226654,0.000000,43.6107,0.000000,1.000000,2.804023,85.304,
42.625,0.821096,0.000000,664.375,649.41,30,1.230800,0.000000,43.7338,0.000000,1.000000,2.815167,85.643,
42.75,0.819132,0.000000,666.25,651.28,30,1.234714,0.000000,43.8516,0.000000,1.000000,2.825784,85.966,
42.875,0.817168,0.000000,668.125,653.15,30,1.238205,0.000000,43.9598,0.000000,1.000000,2.835448,86.26,
43,0.814768,0.000000,670,655.02,30,1.241002,0.000000,44.052,0.000000,1.000000,2.843534,86.506,
43.125,0.812804,0.000000,671.875,656.9,30,1.234390,0.000000,43.9227,0.000000,1.000000,2.830057,86.096,
43.25,0.810840,0.000000,673.75,658.78,30,1.223082,0.000000,43.6826,0.000000,1.000000,2.805798,85.358,
43.375,0.809094,0.000000,675.625,660.66,30,1.212805,0.000000,43.4664,0.000000,1.000000,2.783874,84.691,
43.5,0.807349,0.000000,677.5,662.54,30,1.204058,0.000000,43.286,0.000000,1.000000,2.765433,84.13,
43.625,0.805385,0.000000,679.375,664.42,30,1.198093,0.000000,43.1712,0.000000,1.000000,2.753369,83.763,
43.75,0.803639,0.000000,681.25,666.3,30,1.194336,0.000000,43.1085,0.000000,1.000000,2.746368,83.55,
43.875,0.801676,0.000000,683.125,668.17,30,1.192413,0.000000,43.0892,0.000000,1.000000,2.743574,83.465,
44,0.799712,0.000000,685,670.05,30,1.191403,0.000000,43.0916,0.000000,1.000000,2.742883,83.444,
44.125,0.797748,0.000000,686.875,671.92,30,1.191407,0.000000,43.1181,0.000000,1.000000,2.744527,83.494,
44.25,0.795784,0.000000,688.75,673.8,30,1.192452,0.000000,43.1695,0.000000,1.000000,2.748570,83.617,
44.375,0.793820,0.000000,690.625,675.67,30,1.194192,0.000000,43.2376,0.000000,1.000000,2.754224,83.789,
44.5,0.791856,0.000000,692.5,677.54,30,1.196416,0.000000,43.3173,0.000000,1.000000,2.760995,83.995,
44.625,0.790111,0.000000,694.375,679.42,30,1.198779,0.000000,43.4007,0.000000,1.000000,2.768095,84.211,
44.75,0.788147,0.000000,696.25,681.29,30,1.201735,0.000000,43.4983,0.000000,1.000000,2.776576,84.469,
44.875,0.785965,0.000000,698.125,683.16,30,1.205099,0.000000,43.606,0.000000,1.000000,2.786010,84.756,
45,0.784001,0.000000,700,685.03,30,1.208262,0.000000,43.7091,0.000000,1.000000,2.794984,85.029,
45.125,0.782037,0.000000,701.875,686.9,30,1.211460,0.000000,43.8133,0.000000,1.000000,2.804056,85.305,
45.25,0.780292,0.000000,703.75,688.77,30,1.214782,0.000000,43.9208,0.000000,1.000000,2.813424,85.59,
45.375,0.778983,0.000000,705.625,690.63,30,1.218385,0.000000,44.0352,0.000000,1.000000,2.823450,85.895,
45.5,0.777455,0.000000,707.5,692.5,30,1.221896,0.000000,44.1478,0.000000,1.000000,2.833279,86.194,
45.625,0.775928,0.000000,709.375,694.37,30,1.225743,0.000000,44.2687,0.000000,1.000000,2.843896,86.517,
45.75,0.774182,0.000000,711.25,696.24,30,1.229485,0.000000,44.3874,0.000000,1.000000,2.854283,86.833,
45.875,0.772436,0.000000,713.125,698.1,30,1.233279,0.000000,44.5076,0.000000,1.000000,2.864802,87.153,
46,0.770909,0.000000,715,699.98,30,1.237236,0.000000,44.6321,0.000000,1.000000,2.875715,87.485,
46.125,0.769163,0.000000,716.875,701.84,30,1.241374,0.000000,44.7612,0.000000,1.000000,2.887055,87.83,
46.25,0.767636,0.000000,718.75,703.71,30,1.245589,0.000000,44.8926,0.000000,1.000000,2.898593,88.181,
46.375,0.766109,0.000000,720.625,705.58,30,1.249912,0.000000,45.0269,0.000000,1.000000,2.910394,88.54,
46.5,0.764581,0.000000,722.5,707.44,30,1.254200,0.000000,45.1606,0.000000,1.000000,2.922129,88.897,
46.625,0.763054,0.000000,724.375,709.31,30,1.258764,0.000000,45.3015,0.000000,1.000000,2.934521,89.274,
46.75,0.761526,0.000000,726.25,711.18,30,1.263463,0.000000,45.4459,0.000000,1.000000,2.947242,89.661,
46.875,0.759781,0.000000,728.125,713.05,30,1.267975,0.000000,45.5861,0.000000,1.000000,2.959536,90.035,
47,0.758035,0.000000,730,714.92,30,1.272746,0.000000,45.7331,0.000000,1.000000,2.972454,90.428,
47.125,0.756508,0.000000,731.875,716.78,30,1.277454,0.000000,45.8788,0.000000,1.000000,2.985241,90.817,
47.25,0.754980,0.000000,733.75,718.65,30,1.282127,0.000000,46.0241,0.000000,1.000000,2.997962,91.204,
47.375,0.753453,0.000000,735.625,720.52,30,1.286740,0.000000,46.1682,0.000000,1.000000,3.010552,91.587,
47.5,0.751925,0.000000,737.5,722.39,30,1.291471,0.000000,46.3157,0.000000,1.000000,3.023437,91.979,
47.625,0.750180,0.000000,739.375,724.26,30,1.296478,0.000000,46.4702,0.000000,1.000000,3.036980,92.391,
47.75,0.748434,0.000000,741.25,726.12,30,1.301463,0.000000,46.6245,0.000000,1.000000,3.050490,92.802,
47.875,0.746689,0.000000,743.125,727.99,30,1.306541,0.000000,46.7816,0.000000,1.000000,3.064230,93.22,
48,0.744943,0.000000,745,729.86,30,1.311355,0.000000,46.9327,0.000000,1.000000,3.077378,93.62,
48.125,0.743416,0.000000,746.875,731.72,30,1.316239,0.000000,47.0857,0.000000,1.000000,3.090691,94.025,
48.25,0.742106,0.000000,748.75,733.59,30,1.321142,0.000000,47.2396,0.000000,1.000000,3.104069,94.432,
48.375,0.740797,0.000000,750.625,735.46,30,1.326135,0.000000,47.3963,0.000000,1.000000,3.117678,94.846,
48.5,0.739488,0.000000,752.5,737.33,30,1.331291,0.000000,47.5573,0.000000,1.000000,3.131681,95.272,
48.625,0.738397,0.000000,754.375,739.2,30,1.336564,0.000000,47.7216,0.000000,1.000000,3.145980,95.707,
48.75,0.737088,0.000000,756.25,741.07,30,1.341903,0.000000,47.8879,0.000000,1.000000,3.160443,96.147,
48.875,0.735342,0.000000,758.125,742.94,30,1.347275,0.000000,48.0554,0.000000,1.000000,3.175005,96.59,
49,0.733378,0.000000,760,744.8,30,1.352514,0.000000,48.2201,0.000000,1.000000,3.189271,97.024,
49.125,0.731633,0.000000,761.875,746.67,30,1.357621,0.000000,48.382,0.000000,1.000000,3.203241,97.449,
49.25,0.729887,0.000000,763.75,748.54,30,1.362765,0.000000,48.5452,0.000000,1.000000,3.217310,97.877,
49.375,0.728578,0.000000,765.625,750.4,30,1.368068,0.000000,48.7127,0.000000,1.000000,3.231773,98.317,
49.5,0.727050,0.000000,767.5,752.27,30,1.373489,0.000000,48.8837,0.000000,1.000000,3.246532,98.766,
49.625,0.725959,0.000000,769.375,754.14,30,1.379026,0.000000,49.058,0.000000,1.000000,3.261587,99.224,
49.75,0.724650,0.000000,771.25,756.01,30,1.384712,0.000000,49.2364,0.000000,1.000000,3.277003,99.693,
49.875,0.723559,0.000000,773.125,757.87,30,1.390445,0.000000,49.4164,0.000000,1.000000,3.292551,100.166,
50,0.722032,0.000000,775,759.74,30,1.396196,0.000000,49.5975,0.000000,1.000000,3.308165,100.641,
50.125,0.720286,0.000000,776.875,761.61,30,1.401918,0.000000,49.7781,0.000000,1.000000,3.323713,101.114,
50.25,0.718759,0.000000,778.75,763.48,30,1.407681,0.000000,49.9604,0.000000,1.000000,3.339393,101.591,
50.375,0.717231,0.000000,780.625,765.34,30,1.413317,0.000000,50.1398,0.000000,1.000000,3.354776,102.059,
50.5,0.715704,0.000000,782.5,767.21,30,1.418930,0.000000,50.3193,0.000000,1.000000,3.370127,102.526,
50.625,0.714176,0.000000,784.375,769.08,30,1.424385,0.000000,50.4952,0.000000,1.000000,3.385116,102.982,
50.75,0.712649,0.000000,786.25,770.94,30,1.429777,0.000000,50.67,0.000000,1.000000,3.399974,103.434,
50.875,0.711340,0.000000,788.125,772.81,30,1.435010,0.000000,50.8413,0.000000,1.000000,3.414470,103.875,
51,0.710249,0.000000,790,774.68,30,1.440224,0.000000,51.0126,0.000000,1.000000,3.428933,104.315,
51.125,0.708940,0.000000,791.875,776.55,30,1.445499,0.000000,51.1859,0.000000,1.000000,3.443561,104.76,
51.25,0.707412,0.000000,793.75,778.42,30,1.450768,0.000000,51.3595,0.000000,1.000000,3.458188,105.205,
51.375,0.706103,0.000000,795.625,780.28,30,1.455933,0.000000,51.5308,0.000000,1.000000,3.472586,105.643,
51.5,0.704576,0.000000,797.5,782.15,30,1.461145,0.000000,51.704,0.000000,1.000000,3.487115,106.085,
51.625,0.703266,0.000000,799.375,784.02,30,1.466490,0.000000,51.8809,0.000000,1.000000,3.501972,106.537,
51.75,0.702175,0.000000,801.25,785.89,30,1.471938,0.000000,52.061,0.000000,1.000000,3.517093,106.997,
51.875,0.700866,0.000000,803.125,787.76,30,1.477299,0.000000,52.2393,0.000000,1.000000,3.532016,107.451,
52,0.699775,0.000000,805,789.63,30,1.482623,0.000000,52.4172,0.000000,1.000000,3.546874,107.903,
52.125,0.698466,0.000000,806.875,791.5,30,1.487707,0.000000,52.5894,0.000000,1.000000,3.561173,108.338,
52.25,0.696938,0.000000,808.75,793.36,30,1.492801,0.000000,52.7623,0.000000,1.000000,3.575505,108.774,
52.375,0.695411,0.000000,810.625,795.23,30,1.497736,0.000000,52.9317,0.000000,1.000000,3.589475,109.199,
52.5,0.693884,0.000000,812.5,797.1,30,1.502678,0.000000,53.1018,0.000000,1.000000,3.603478,109.625,
52.625,0.692793,0.000000,814.375,798.97,30,1.507590,0.000000,53.2715,0.000000,1.000000,3.617415,110.049,
52.75,0.691483,0.000000,816.25,800.84,30,1.512506,0.000000,53.4419,0.000000,1.000000,3.631385,110.474,
52.875,0.689956,0.000000,818.125,802.71,30,1.517431,0.000000,53.6129,0.000000,1.000000,3.645388,110.9,
53,0.688429,0.000000,820,804.58,30,1.522418,0.000000,53.7861,0.000000,1.000000,3.659556,111.331,
53.125,0.686901,0.000000,821.875,806.45,30,1.527208,0.000000,53.9546,0.000000,1.000000,3.673263,111.748,
53.25,0.685592,0.000000,823.75,808.32,30,1.532090,0.000000,54.126,0.000000,1.000000,3.687200,112.172,
53.375,0.684719,0.000000,825.625,810.18,30,1.536937,0.000000,54.2968,0.000000,1.000000,3.701072,112.594,
53.5,0.683628,0.000000,827.5,812.06,30,1.541803,0.000000,54.4689,0.000000,1.000000,3.715009,113.018,
53.625,0.682537,0.000000,829.375,813.92,30,1.546640,0.000000,54.6404,0.000000,1.000000,3.728880,113.44,
53.75,0.681010,0.000000,831.25,815.79,30,1.551088,0.000000,54.8026,0.000000,1.000000,3.741832,113.834,
53.875,0.679482,0.000000,833.125,817.66,30,1.555599,0.000000,54.9668,0.000000,1.000000,3.754947,114.233,
54,0.677737,0.000000,835,819.53,30,1.559929,0.000000,55.1268,0.000000,1.000000,3.767635,114.619,
54.125,0.676427,0.000000,836.875,821.4,30,1.564364,0.000000,55.2899,0.000000,1.000000,3.780586,115.013,
54.25,0.674682,0.000000,838.75,823.27,30,1.568885,0.000000,55.4559,0.000000,1.000000,3.793768,115.414,
54.375,0.673373,0.000000,840.625,825.14,30,1.573403,0.000000,55.6221,0.000000,1.000000,3.806949,115.815,
54.5,0.671627,0.000000,842.5,827.01,30,1.577847,0.000000,55.787,0.000000,1.000000,3.819966,116.211,
54.625,0.669663,0.000000,844.375,828.88,30,1.582669,0.000000,55.9621,0.000000,1.000000,3.833903,116.635,
54.75,0.668136,0.000000,846.25,830.74,30,1.587454,0.000000,56.1367,0.000000,1.000000,3.847775,117.057,
54.875,0.666827,0.000000,848.125,832.61,30,1.592088,0.000000,56.3079,0.000000,1.000000,3.861285,117.468,
55,0.665299,0.000000,850,834.48,30,1.596622,0.000000,56.477,0.000000,1.000000,3.874564,117.872,
55.125,0.663553,0.000000,851.875,836.35,30,1.601216,0.000000,56.6482,0.000000,1.000000,3.888009,118.281,
55.25,0.661808,0.000000,853.75,838.22,30,1.605863,0.000000,56.8212,0.000000,1.000000,3.901584,118.694,
55.375,0.660499,0.000000,855.625,840.09,30,1.610462,0.000000,56.9935,0.000000,1.000000,3.915061,119.104,
55.5,0.659626,0.000000,857.5,841.95,30,1.614948,0.000000,57.1632,0.000000,1.000000,3.928276,119.506,
55.625,0.658098,0.000000,859.375,843.82,30,1.619375,0.000000,57.332,0.000000,1.000000,3.941358,119.904,
55.75,0.656571,0.000000,861.25,845.69,30,1.623689,0.000000,57.4983,0.000000,1.000000,3.954178,120.294,
55.875,0.654825,0.000000,863.125,847.56,30,1.628092,0.000000,57.6675,0.000000,1.000000,3.967228,120.691,
56,0.652862,0.000000,865,849.43,30,1.632468,0.000000,57.8363,0.000000,1.000000,3.980212,121.086,
56.125,0.650680,0.000000,866.875,851.3,30,1.636688,0.000000,58.0016,0.000000,1.000000,3.992834,121.47,
56.25,0.648498,0.000000,868.75,853.16,30,1.641000,0.000000,58.1696,0.000000,1.000000,4.005687,121.861,
56.375,0.646534,0.000000,870.625,855.03,30,1.645307,0.000000,58.3382,0.000000,1.000000,4.018539,122.252,
56.5,0.645006,0.000000,872.5,856.9,30,1.649673,0.000000,58.5089,0.000000,1.000000,4.031556,122.648,
56.625,0.643479,0.000000,874.375,858.77,30,1.654253,0.000000,58.6857,0.000000,1.000000,4.045099,123.06,
56.75,0.641951,0.000000,876.25,860.63,30,1.659045,0.000000,58.8684,0.000000,1.000000,4.059168,123.488,
56.875,0.640206,0.000000,878.125,862.5,30,1.663814,0.000000,59.0514,0.000000,1.000000,4.073204,123.915,
57,0.638242,0.000000,880,864.37,30,1.668310,0.000000,59.2276,0.000000,1.000000,4.086582,124.322,
57.125,0.636060,0.000000,881.875,866.24,30,1.672499,0.000000,59.396,0.000000,1.000000,4.099205,124.706,
57.25,0.634533,0.000000,883.75,868.1,30,1.676772,0.000000,59.5671,0.000000,1.000000,4.112057,125.097,
57.375,0.632569,0.000000,885.625,869.97,30,1.681151,0.000000,59.7417,0.000000,1.000000,4.125173,125.496,
57.5,0.631041,0.000000,887.5,871.84,30,1.685632,0.000000,59.9195,0.000000,1.000000,4.138551,125.903,
57.625,0.628859,0.000000,889.375,873.71,30,1.690296,0.000000,60.1028,0.000000,1.000000,4.152390,126.324,
57.75,0.626895,0.000000,891.25,875.57,30,1.695092,0.000000,60.2899,0.000000,1.000000,4.166557,126.755,
57.875,0.625150,0.000000,893.125,877.44,30,1.699694,0.000000,60.4725,0.000000,1.000000,4.180264,127.172,
58,0.623404,0.000000,895,879.31,30,1.704586,0.000000,60.6636,0.000000,1.000000,4.194695,127.611,
58.125,0.621222,0.000000,896.875,881.17,30,1.709523,0.000000,60.8563,0.000000,1.000000,4.209256,128.054,
58.25,0.619040,0.000000,898.75,883.04,30,1.714178,0.000000,61.0421,0.000000,1.000000,4.223128,128.476,
58.375,0.616858,0.000000,900,884.91,29.5,1.718857,0.000000,61.229,0.000000,1.000000,4.237065,128.9,
58.5,0.617295,0.000000,900,886.78,10,1.723370,0.000000,61.4121,0.000000,1.000000,4.250608,129.312,
58.625,0.619477,0.000000,900,888.53,10,1.762052,0.000000,62.5164,0.000000,1.000000,4.348333,132.285,
58.75,0.621659,0.000000,900,889.9,10.1,1.825077,0.000000,64.2698,0.000000,1.000000,4.505752,137.074,
58.875,0.622095,0.000000,900,891,10.2,1.867837,0.000000,65.4677,0.000000,1.000000,4.612879,140.333,
59,0.619695,0.000000,900,891.96,10.2,1.894519,0.000000,66.2259,0.000000,1.000000,4.680133,142.379,
59.125,0.616858,0.000000,900,892.82,10.2,1.910639,0.000000,66.6949,0.000000,1.000000,4.721189,143.628,
59.25,0.614458,0.000000,900,893.62,10.2,1.920780,0.000000,66.9997,0.000000,1.000000,4.747387,144.425,
59.3375,0.612276,0.000000,900,894.14,10.2,1.925330,0.000000,67.1426,0.000000,1.000000,4.759385,144.79,