File: data/c20.csv
Time,Unsubtracted Weight,Baseline Weight,Program Temperature,Sample Temperature,Approx. Gas Flow,Unsubtracted Delta T,Baseline Delta T,Unsubtracted Heat Flow,Baseline Heat Flow,Heat Flow Calibration,Unsubstracted Microvolt,R25 Diagnostic Signal,
0.000000,10.7183,0.000000,25.0417,24.89,30,-0.026374,0.000000,20,0.000000,1.000000,-0.034777,-1.058000,
0.097917,10.7126,0.000000,26.9583,24.95,30,-0.027092,0.000000,19.9898,0.000000,1.000000,-0.035731,-1.087000,
0.195833,10.7089,0.000000,28.9167,25,30,-0.027834,0.000000,19.9792,0.000000,1.000000,-0.036717,-1.117000,
0.293750,10.7076,0.000000,30.875,25.09,30,-0.029094,0.000000,19.9613,0.000000,1.000000,-0.038393,-1.168000,
0.391667,10.7087,0.000000,32.8333,25.38,30,-0.039786,0.000000,19.8095,0.000000,1.000000,-0.052561,-1.599000,
0.489583,10.7113,0.000000,34.7917,25.87,30,-0.061895,0.000000,19.4951,0.000000,1.000000,-0.081914,-2.492000,
0.587500,10.7137,0.000000,36.75,26.54,30,-0.090882,0.000000,19.0813,0.000000,1.000000,-0.120571,-3.668000,
0.685417,10.7153,0.000000,38.7083,27.39,30,-0.124669,0.000000,18.5962,0.000000,1.000000,-0.165900,-5.047000,
0.783333,10.7157,0.000000,40.6667,28.4,30,-0.162153,0.000000,18.0544,0.000000,1.000000,-0.216554,-6.588000,
0.881250,10.7153,0.000000,42.625,29.57,30,-0.204168,0.000000,17.4427,0.000000,1.000000,-0.273782,-8.329000,
0.979167,10.714,0.000000,44.5833,30.88,30,-0.251747,0.000000,16.7447,0.000000,1.000000,-0.339130,-10.317,
1.077083,10.7113,0.000000,46.5417,32.32,30,-0.301060,0.000000,16.0143,0.000000,1.000000,-0.407567,-12.399,
1.175000,10.7078,0.000000,48.5,33.89,30,-0.349865,0.000000,15.283,0.000000,1.000000,-0.476169,-14.486,
1.272917,10.703,0.000000,50.4583,35.57,30,-0.397340,0.000000,14.5626,0.000000,1.000000,-0.543817,-16.544,
1.370833,10.6969,0.000000,52.4167,37.35,30,-0.442926,0.000000,13.8613,0.000000,1.000000,-0.609756,-18.55,
1.468750,10.6895,0.000000,54.375,39.23,30,-0.482513,0.000000,13.2394,0.000000,1.000000,-0.668332,-20.332,
1.566667,10.6801,0.000000,56.3333,41.18,30,-0.515924,0.000000,12.7018,0.000000,1.000000,-0.719085,-21.876,
1.664583,10.6694,0.000000,58.2917,43.2,30,-0.542095,0.000000,12.2658,0.000000,1.000000,-0.760371,-23.132,
1.762500,10.6568,0.000000,60.25,45.24,30,-0.560160,0.000000,11.947,0.000000,1.000000,-0.790711,-24.055,
1.860417,10.643,0.000000,62.2083,47.31,30,-0.571879,0.000000,11.721,0.000000,1.000000,-0.812373,-24.714,
1.958333,10.6282,0.000000,64.1667,49.38,30,-0.580347,0.000000,11.5428,0.000000,1.000000,-0.829564,-25.237,
2.056250,10.6127,0.000000,66.125,51.46,30,-0.588428,0.000000,11.3697,0.000000,1.000000,-0.846295,-25.746,
2.154167,10.5959,0.000000,68.0833,53.54,30,-0.596647,0.000000,11.1939,0.000000,1.000000,-0.863290,-26.263,
2.252083,10.5782,0.000000,70.0417,55.61,30,-0.605308,0.000000,11.0106,0.000000,1.000000,-0.881007,-26.802,
2.350000,10.5599,0.000000,72,57.67,30,-0.613967,0.000000,10.8268,0.000000,1.000000,-0.898790,-27.343,
2.447917,10.5418,0.000000,73.9583,59.72,30,-0.621997,0.000000,10.6522,0.000000,1.000000,-0.915719,-27.858,
2.545833,10.5239,0.000000,75.9167,61.76,30,-0.628903,0.000000,10.4952,0.000000,1.000000,-0.931004,-28.323,
2.643750,10.5062,0.000000,77.875,63.78,30,-0.632401,0.000000,10.3915,0.000000,1.000000,-0.941260,-28.635,
2.741667,10.4883,0.000000,79.8333,65.78,30,-0.632599,0.000000,10.3409,0.000000,1.000000,-0.946519,-28.795,
2.839583,10.4704,0.000000,81.7917,67.77,30,-0.630363,0.000000,10.3296,0.000000,1.000000,-0.948064,-28.842,
2.937500,10.4536,0.000000,83.75,69.73,30,-0.623233,0.000000,10.3983,0.000000,1.000000,-0.942049,-28.659,
3.035417,10.4373,0.000000,85.7083,71.68,30,-0.613113,0.000000,10.5166,0.000000,1.000000,-0.931333,-28.333,
3.133333,10.4237,0.000000,87.6667,73.62,30,-0.600947,0.000000,10.6705,0.000000,1.000000,-0.917231,-27.904,
3.231250,10.4113,0.000000,89.625,75.54,30,-0.585530,0.000000,10.8795,0.000000,1.000000,-0.897903,-27.316,
3.329167,10.3984,0.000000,91.5833,77.44,30,-0.568717,0.000000,11.114,0.000000,1.000000,-0.876142,-26.654,
3.427083,10.3856,0.000000,93.5417,79.33,30,-0.551046,0.000000,11.3655,0.000000,1.000000,-0.852738,-25.942,
3.525000,10.3749,0.000000,95.5,81.2,30,-0.532716,0.000000,11.6309,0.000000,1.000000,-0.827986,-25.189,
3.622917,10.3646,0.000000,97.4583,83.06,30,-0.514024,0.000000,11.9051,0.000000,1.000000,-0.802380,-24.41,
3.720833,10.3546,0.000000,99.4167,84.91,30,-0.495252,0.000000,12.1836,0.000000,1.000000,-0.776346,-23.618,
3.818750,10.345,0.000000,101.375,86.76,30,-0.476839,0.000000,12.4589,0.000000,1.000000,-0.750575,-22.834,
3.916667,10.3365,0.000000,103.333,88.59,30,-0.458683,0.000000,12.7326,0.000000,1.000000,-0.724936,-22.054,
4.014583,10.3286,0.000000,105.292,90.42,30,-0.441153,0.000000,12.9984,0.000000,1.000000,-0.700020,-21.296,
4.112500,10.3212,0.000000,107.25,92.24,30,-0.424283,0.000000,13.2557,0.000000,1.000000,-0.675892,-20.562,
4.210417,10.3144,0.000000,109.208,94.05,30,-0.408317,0.000000,13.4999,0.000000,1.000000,-0.652981,-19.865,
4.308333,10.3081,0.000000,111.167,95.87,30,-0.393460,0.000000,13.7276,0.000000,1.000000,-0.631615,-19.215,
4.406250,10.3024,0.000000,113.125,97.68,30,-0.379484,0.000000,13.9423,0.000000,1.000000,-0.611465,-18.602,
4.504167,10.2974,0.000000,115.083,99.49,30,-0.366545,0.000000,14.1413,0.000000,1.000000,-0.592795,-18.034,
4.602083,10.293,0.000000,117.042,101.3,30,-0.354384,0.000000,14.3287,0.000000,1.000000,-0.575209,-17.499,
4.700000,10.2887,0.000000,119,103.11,30,-0.343098,0.000000,14.5025,0.000000,1.000000,-0.558905,-17.003,
4.797917,10.2848,0.000000,120.958,104.93,30,-0.332975,0.000000,14.6578,0.000000,1.000000,-0.544343,-16.56,
4.895833,10.2808,0.000000,122.917,106.74,30,-0.323756,0.000000,14.7988,0.000000,1.000000,-0.531129,-16.158,
4.993750,10.2776,0.000000,124.875,108.57,30,-0.315308,0.000000,14.9277,0.000000,1.000000,-0.519065,-15.791,
5.091667,10.2747,0.000000,126.833,110.39,30,-0.307842,0.000000,15.0406,0.000000,1.000000,-0.508514,-15.47,
5.189583,10.2721,0.000000,128.792,112.23,30,-0.301227,0.000000,15.1396,0.000000,1.000000,-0.499277,-15.189,
5.287500,10.2701,0.000000,130.75,114.06,30,-0.295456,0.000000,15.2247,0.000000,1.000000,-0.491355,-14.948,
5.385417,10.268,0.000000,132.708,115.9,30,-0.290494,0.000000,15.2964,0.000000,1.000000,-0.484715,-14.746,
5.483333,10.266,0.000000,134.667,117.75,30,-0.286281,0.000000,15.3556,0.000000,1.000000,-0.479258,-14.58,
5.581250,10.2645,0.000000,136.625,119.61,30,-0.282883,0.000000,15.401,0.000000,1.000000,-0.475117,-14.454,
5.679167,10.2631,0.000000,138.583,121.47,30,-0.280023,0.000000,15.4374,0.000000,1.000000,-0.471830,-14.354,
5.777083,10.2618,0.000000,140.542,123.34,30,-0.277829,0.000000,15.4624,0.000000,1.000000,-0.469627,-14.287,
5.875000,10.2603,0.000000,142.5,125.22,30,-0.276080,0.000000,15.4799,0.000000,1.000000,-0.468148,-14.242,
5.972917,10.2592,0.000000,144.458,127.11,30,-0.274674,0.000000,15.4915,0.000000,1.000000,-0.467228,-14.214,
6.070833,10.2581,0.000000,146.417,129,30,-0.273747,0.000000,15.4948,0.000000,1.000000,-0.467096,-14.21,
6.168750,10.257,0.000000,148.375,130.9,30,-0.273234,0.000000,15.4909,0.000000,1.000000,-0.467655,-14.227,
6.266667,10.2559,0.000000,150.333,132.8,30,-0.273133,0.000000,15.4799,0.000000,1.000000,-0.468904,-14.265,
6.364583,10.2553,0.000000,152.292,134.72,30,-0.273629,0.000000,15.4582,0.000000,1.000000,-0.471172,-14.334,
6.462500,10.2544,0.000000,154.25,136.63,30,-0.274682,0.000000,15.4265,0.000000,1.000000,-0.474394,-14.432,
6.560417,10.2535,0.000000,156.208,138.56,30,-0.275941,0.000000,15.3912,0.000000,1.000000,-0.477976,-14.541,
6.658333,10.2533,0.000000,158.167,140.49,30,-0.277427,0.000000,15.3517,0.000000,1.000000,-0.481954,-14.662,
6.756250,10.252,0.000000,160.125,142.43,30,-0.278929,0.000000,15.3119,0.000000,1.000000,-0.485964,-14.784,
6.854167,10.2514,0.000000,162.083,144.37,30,-0.280483,0.000000,15.2712,0.000000,1.000000,-0.490073,-14.909,
6.952083,10.2509,0.000000,164.042,146.32,30,-0.282282,0.000000,15.226,0.000000,1.000000,-0.494609,-15.047,
7.050000,10.2501,0.000000,166,148.27,30,-0.284188,0.000000,15.1787,0.000000,1.000000,-0.499343,-15.191,
7.147917,10.2494,0.000000,167.958,150.22,30,-0.286109,0.000000,15.1312,0.000000,1.000000,-0.504109,-15.336,
7.245833,10.249,0.000000,169.917,152.18,30,-0.288026,0.000000,15.0837,0.000000,1.000000,-0.508875,-15.481,
7.343750,10.2481,0.000000,171.875,154.15,30,-0.289829,0.000000,15.0383,0.000000,1.000000,-0.513444,-15.62,
7.441667,10.2474,0.000000,173.833,156.12,30,-0.291408,0.000000,14.997,0.000000,1.000000,-0.517619,-15.747,
7.539583,10.2468,0.000000,175.792,158.09,30,-0.293096,0.000000,14.9536,0.000000,1.000000,-0.521991,-15.88,
7.637500,10.2466,0.000000,177.75,160.07,30,-0.294818,0.000000,14.9097,0.000000,1.000000,-0.526428,-16.015,
7.735417,10.2461,0.000000,179.708,162.05,30,-0.296339,0.000000,14.8695,0.000000,1.000000,-0.530504,-16.139,
7.833333,10.2453,0.000000,181.667,164.04,30,-0.297585,0.000000,14.8344,0.000000,1.000000,-0.534087,-16.248,
7.931250,10.2446,0.000000,183.625,166.02,30,-0.298487,0.000000,14.8058,0.000000,1.000000,-0.537046,-16.338,
8.029167,10.2435,0.000000,185.583,168,30,-0.299441,0.000000,14.7762,0.000000,1.000000,-0.540103,-16.431,
8.127083,10.2429,0.000000,187.542,169.98,30,-0.300402,0.000000,14.7466,0.000000,1.000000,-0.543160,-16.524,
8.225000,10.2422,0.000000,189.5,171.97,30,-0.301112,0.000000,14.7218,0.000000,1.000000,-0.545756,-16.603,
8.322917,10.2415,0.000000,191.458,173.95,30,-0.301918,0.000000,14.6952,0.000000,1.000000,-0.548518,-16.687,
8.420833,10.2409,0.000000,193.417,175.93,30,-0.302493,0.000000,14.6731,0.000000,1.000000,-0.550851,-16.758,
8.518750,10.2402,0.000000,195.375,177.91,30,-0.302766,0.000000,14.6568,0.000000,1.000000,-0.552626,-16.812,
8.616667,10.2394,0.000000,197.333,179.9,30,-0.303027,0.000000,14.6408,0.000000,1.000000,-0.554369,-16.865,
8.714583,10.2389,0.000000,199.292,181.88,30,-0.303097,0.000000,14.6286,0.000000,1.000000,-0.555749,-16.907,
8.812500,10.2383,0.000000,201.25,183.86,30,-0.303068,0.000000,14.6184,0.000000,1.000000,-0.556932,-16.943,
8.910417,10.2372,0.000000,203.208,185.84,30,-0.303100,0.000000,14.6071,0.000000,1.000000,-0.558214,-16.982,
9.008333,10.2365,0.000000,205.167,187.82,30,-0.302960,0.000000,14.5993,0.000000,1.000000,-0.559168,-17.011,
9.106250,10.2357,0.000000,207.125,189.79,30,-0.302758,0.000000,14.5928,0.000000,1.000000,-0.559989,-17.036,
9.204167,10.2348,0.000000,209.083,191.77,30,-0.302385,0.000000,14.5896,0.000000,1.000000,-0.560483,-17.051,
9.302083,10.2339,0.000000,211.042,193.75,30,-0.301848,0.000000,14.5899,0.000000,1.000000,-0.560647,-17.056,
9.400000,10.2335,0.000000,213,195.72,30,-0.301208,0.000000,14.5922,0.000000,1.000000,-0.560614,-17.055,
9.497917,10.2328,0.000000,214.958,197.69,30,-0.300582,0.000000,14.5944,0.000000,1.000000,-0.560581,-17.054,
9.595833,10.2319,0.000000,216.917,199.67,30,-0.299964,0.000000,14.5966,0.000000,1.000000,-0.560548,-17.053,
9.693750,10.2311,0.000000,218.875,201.64,30,-0.299496,0.000000,14.5962,0.000000,1.000000,-0.560778,-17.06,
9.791667,10.2298,0.000000,220.833,203.61,30,-0.298859,0.000000,14.599,0.000000,1.000000,-0.560680,-17.057,
9.889583,10.2285,0.000000,222.792,205.58,30,-0.298094,0.000000,14.6046,0.000000,1.000000,-0.560318,-17.046,
9.987500,10.2274,0.000000,224.75,207.54,30,-0.297510,0.000000,14.6068,0.000000,1.000000,-0.560285,-17.045,
10.0854,10.2263,0.000000,226.708,209.51,30,-0.296729,0.000000,14.613,0.000000,1.000000,-0.559858,-17.032,
10.1833,10.2256,0.000000,228.667,211.47,30,-0.296095,0.000000,14.6165,0.000000,1.000000,-0.559694,-17.027,
10.2812,10.2243,0.000000,230.625,213.44,30,-0.295656,0.000000,14.6162,0.000000,1.000000,-0.559891,-17.033,
10.3792,10.2226,0.000000,232.583,215.4,30,-0.295264,0.000000,14.6153,0.000000,1.000000,-0.560154,-17.041,
10.4771,10.221,0.000000,234.542,217.36,30,-0.294964,0.000000,14.6126,0.000000,1.000000,-0.560581,-17.054,
10.575,10.2193,0.000000,236.5,219.32,30,-0.294825,0.000000,14.6069,0.000000,1.000000,-0.561304,-17.076,
10.6729,10.218,0.000000,238.458,221.28,30,-0.294746,0.000000,14.6002,0.000000,1.000000,-0.562126,-17.101,
10.7708,10.2165,0.000000,240.417,223.24,30,-0.294948,0.000000,14.5881,0.000000,1.000000,-0.563474,-17.142,
10.8688,10.2149,0.000000,242.375,225.2,30,-0.295340,0.000000,14.5722,0.000000,1.000000,-0.565183,-17.194,
10.9667,10.213,0.000000,244.333,227.16,30,-0.295773,0.000000,14.5557,0.000000,1.000000,-0.566958,-17.248,
11.0646,10.2103,0.000000,246.292,229.12,30,-0.296329,0.000000,14.5368,0.000000,1.000000,-0.568963,-17.309,
11.1625,10.2084,0.000000,248.25,231.07,30,-0.296890,0.000000,14.5179,0.000000,1.000000,-0.570968,-17.37,
11.2604,10.2064,0.000000,250.208,233.03,30,-0.297349,0.000000,14.501,0.000000,1.000000,-0.572776,-17.425,
11.3583,10.2036,0.000000,252.167,234.98,30,-0.297711,0.000000,14.4861,0.000000,1.000000,-0.574387,-17.474,
11.4563,10.201,0.000000,254.125,236.94,30,-0.297991,0.000000,14.4729,0.000000,1.000000,-0.575833,-17.518,
11.5542,10.1986,0.000000,256.083,238.9,30,-0.298038,0.000000,14.4645,0.000000,1.000000,-0.576819,-17.548,
11.6521,10.1955,0.000000,258.042,240.85,30,-0.297802,0.000000,14.4617,0.000000,1.000000,-0.577247,-17.561,
11.75,10.1925,0.000000,260,242.8,30,-0.297484,0.000000,14.4606,0.000000,1.000000,-0.577510,-17.569,
11.8479,10.1898,0.000000,261.958,244.76,30,-0.296851,0.000000,14.4659,0.000000,1.000000,-0.577148,-17.558,
11.9458,10.1866,0.000000,263.917,246.71,30,-0.296056,0.000000,14.4745,0.000000,1.000000,-0.576458,-17.537,
12.0437,10.1839,0.000000,265.875,248.67,30,-0.295268,0.000000,14.4831,0.000000,1.000000,-0.575768,-17.516,
12.1417,10.1811,0.000000,267.833,250.63,30,-0.294250,0.000000,14.4964,0.000000,1.000000,-0.574617,-17.481,
12.2396,10.1778,0.000000,269.792,252.58,30,-0.293173,0.000000,14.511,0.000000,1.000000,-0.573335,-17.442,
12.3375,10.1757,0.000000,271.75,254.53,30,-0.291952,0.000000,14.5286,0.000000,1.000000,-0.571757,-17.394,
12.4354,10.1722,0.000000,273.708,256.48,30,-0.290855,0.000000,14.5438,0.000000,1.000000,-0.570410,-17.353,
12.5333,10.1691,0.000000,275.667,258.44,30,-0.289783,0.000000,14.5587,0.000000,1.000000,-0.569095,-17.313,
12.6312,10.1658,0.000000,277.625,260.39,30,-0.288649,0.000000,14.5749,0.000000,1.000000,-0.567648,-17.269,
12.7292,10.1617,0.000000,279.583,262.35,30,-0.287675,0.000000,14.5881,0.000000,1.000000,-0.566498,-17.234,
12.8271,10.1578,0.000000,281.542,264.3,30,-0.286656,0.000000,14.6022,0.000000,1.000000,-0.565249,-17.196,
12.925,10.1534,0.000000,283.5,266.26,30,-0.285708,0.000000,14.615,0.000000,1.000000,-0.564131,-17.162,
13.0229,10.1488,0.000000,285.458,268.21,30,-0.284835,0.000000,14.6264,0.000000,1.000000,-0.563145,-17.132,
13.1208,10.144,0.000000,287.417,270.17,30,-0.283984,0.000000,14.6375,0.000000,1.000000,-0.562192,-17.103,
13.2188,10.1388,0.000000,289.375,272.12,30,-0.283239,0.000000,14.6465,0.000000,1.000000,-0.561436,-17.08,
13.3167,10.1333,0.000000,291.333,274.08,30,-0.282597,0.000000,14.6535,0.000000,1.000000,-0.560877,-17.063,
13.4146,10.1272,0.000000,293.292,276.03,30,-0.282143,0.000000,14.6568,0.000000,1.000000,-0.560680,-17.057,
13.5125,10.1204,0.000000,295.25,277.99,30,-0.281990,0.000000,14.6541,0.000000,1.000000,-0.561074,-17.069,
13.6104,10.1137,0.000000,297.208,279.94,30,-0.282072,0.000000,14.6466,0.000000,1.000000,-0.561929,-17.095,
13.7083,10.1054,0.000000,299.167,281.9,30,-0.282454,0.000000,14.6331,0.000000,1.000000,-0.563375,-17.139,
13.8063,10.0967,0.000000,301.125,283.85,30,-0.283085,0.000000,14.6146,0.000000,1.000000,-0.565315,-17.198,
13.9042,10.0871,0.000000,303.083,285.81,30,-0.283997,0.000000,14.5904,0.000000,1.000000,-0.567813,-17.274,
14.0021,10.0764,0.000000,305.042,287.76,30,-0.285090,0.000000,14.5625,0.000000,1.000000,-0.570673,-17.361,
14.1,10.0655,0.000000,307,289.72,30,-0.286479,0.000000,14.5286,0.000000,1.000000,-0.574124,-17.466,
14.1979,10.0532,0.000000,308.958,291.68,30,-0.288310,0.000000,14.4856,0.000000,1.000000,-0.578463,-17.598,
14.2958,10.0399,0.000000,310.917,293.64,30,-0.290533,0.000000,14.4346,0.000000,1.000000,-0.583591,-17.754,
14.3938,10.0251,0.000000,312.875,295.6,30,-0.293097,0.000000,14.3766,0.000000,1.000000,-0.589409,-17.931,
14.4917,10.0087,0.000000,314.833,297.55,30,-0.296278,0.000000,14.3059,0.000000,1.000000,-0.596476,-18.146,
14.5896,9.991051,0.000000,316.792,299.51,30,-0.300010,0.000000,14.2239,0.000000,1.000000,-0.604661,-18.395,
14.6875,9.970758,0.000000,318.75,301.47,30,-0.304388,0.000000,14.1285,0.000000,1.000000,-0.614161,-18.684,
14.7854,9.948938,0.000000,320.708,303.43,30,-0.309801,0.000000,14.0117,0.000000,1.000000,-0.625764,-19.037,
14.8833,9.924500,0.000000,322.667,305.39,30,-0.316360,0.000000,13.8712,0.000000,1.000000,-0.639702,-19.461,
14.9812,9.898970,0.000000,324.625,307.35,30,-0.324238,0.000000,13.7034,0.000000,1.000000,-0.656334,-19.967,
15.0792,9.869513,0.000000,326.583,309.31,30,-0.333288,0.000000,13.5113,0.000000,1.000000,-0.675367,-20.546,
15.1771,9.835255,0.000000,328.542,311.27,30,-0.345545,0.000000,13.2527,0.000000,1.000000,-0.700940,-21.324,
15.275,9.795978,0.000000,330.5,313.24,30,-0.361308,0.000000,12.9215,0.000000,1.000000,-0.733680,-22.32,
15.3729,9.750592,0.000000,332.458,315.2,30,-0.380328,0.000000,12.5226,0.000000,1.000000,-0.773092,-23.519,
15.4708,9.698660,0.000000,334.417,317.17,30,-0.404512,0.000000,12.0164,0.000000,1.000000,-0.823089,-25.04,
15.5687,9.637563,0.000000,336.375,319.14,30,-0.434492,0.000000,11.3895,0.000000,1.000000,-0.884985,-26.923,
15.6667,9.565120,0.000000,338.333,321.11,30,-0.472204,0.000000,10.6017,0.000000,1.000000,-0.962757,-29.289,
15.7646,9.479367,0.000000,340.292,323.08,30,-0.519025,0.000000,9.623985,0.000000,1.000000,-1.059266,-32.225,
15.8625,9.378121,0.000000,342.25,325.06,30,-0.574143,0.000000,8.472832,0.000000,1.000000,-1.172901,-35.682,
15.9604,9.260073,0.000000,344.208,327.05,30,-0.640455,0.000000,7.087617,0.000000,1.000000,-1.309644,-39.842,
16.0583,9.124351,0.000000,346.167,329.04,30,-0.714404,0.000000,5.541780,0.000000,1.000000,-1.462264,-44.485,
16.1562,8.968555,0.000000,348.125,331.03,30,-0.796876,0.000000,3.816384,0.000000,1.000000,-1.632634,-49.668,
16.2542,8.790065,0.000000,350.083,333.04,30,-0.888751,0.000000,1.892862,0.000000,1.000000,-1.822595,-55.447,
16.3521,8.586919,0.000000,352.042,335.05,30,-0.986701,0.000000,-0.160087,0.000000,1.000000,-2.025376,-61.616,
16.45,8.355843,0.000000,354,337.07,30,-1.091753,0.000000,-2.364061,0.000000,1.000000,-2.243114,-68.24,
16.5479,8.098364,0.000000,355.958,339.09,30,-1.202865,0.000000,-4.697704,0.000000,1.000000,-2.473703,-75.255,
16.6458,7.810118,0.000000,357.917,341.12,30,-1.318888,0.000000,-7.137311,0.000000,1.000000,-2.714812,-82.59,
16.7437,7.492416,0.000000,359.875,343.17,30,-1.436005,0.000000,-9.603566,0.000000,1.000000,-2.958615,-90.007,
16.8417,7.141328,0.000000,361.833,345.21,30,-1.552424,0.000000,-12.0589,0.000000,1.000000,-3.201400,-97.393,
16.9396,6.759474,0.000000,363.792,347.27,30,-1.668286,0.000000,-14.5063,0.000000,1.000000,-3.443462,-104.757,
17.0375,6.349472,0.000000,365.75,349.32,30,-1.775663,0.000000,-16.78,0.000000,1.000000,-3.668431,-111.601,
17.1354,5.910667,0.000000,367.708,351.38,30,-1.872012,0.000000,-18.8262,0.000000,1.000000,-3.870982,-117.763,
17.2333,5.454624,0.000000,369.667,353.45,30,-1.949927,0.000000,-20.4892,0.000000,1.000000,-4.035731,-122.775,
17.3313,4.989852,0.000000,371.625,355.51,30,-2.006521,0.000000,-21.7077,0.000000,1.000000,-4.156597,-126.452,
17.4292,4.523336,0.000000,373.583,357.57,30,-2.034863,0.000000,-22.3351,0.000000,1.000000,-4.219085,-128.353,
17.5271,4.065547,0.000000,375.542,359.62,30,-2.031497,0.000000,-22.2974,0.000000,1.000000,-4.215864,-128.255,
17.625,3.620414,0.000000,377.5,361.65,30,-1.991858,0.000000,-21.4971,0.000000,1.000000,-4.137269,-125.864,
17.7229,3.208884,0.000000,379.458,363.68,30,-1.918254,0.000000,-19.9809,0.000000,1.000000,-3.987903,-121.32,
17.8208,2.840341,0.000000,381.417,365.68,30,-1.809515,0.000000,-17.7226,0.000000,1.000000,-3.765137,-114.543,
17.9187,2.525256,0.000000,383.375,367.67,30,-1.670672,0.000000,-14.8264,0.000000,1.000000,-3.479258,-105.846,
18.0167,2.259049,0.000000,385.333,369.64,30,-1.508258,0.000000,-11.4285,0.000000,1.000000,-3.143712,-95.638,
18.1146,2.049793,0.000000,387.292,371.58,30,-1.329233,0.000000,-7.674708,0.000000,1.000000,-2.772895,-84.357,
18.2125,1.893342,0.000000,389.25,373.5,30,-1.142411,0.000000,-3.750470,0.000000,1.000000,-2.385149,-72.561,
18.3104,1.777259,0.000000,391.208,375.4,30,-0.956891,0.000000,0.152354,0.000000,1.000000,-1.999441,-60.827,
18.4083,1.703070,0.000000,393.167,377.28,30,-0.784729,0.000000,3.778533,0.000000,1.000000,-1.641016,-49.923,
18.5063,1.653101,0.000000,395.125,379.13,30,-0.634715,0.000000,6.941381,0.000000,1.000000,-1.328348,-40.411,
18.6042,1.615789,0.000000,397.083,380.99,30,-0.515453,0.000000,9.457617,0.000000,1.000000,-1.079581,-32.843,
18.7021,1.588732,0.000000,399.042,382.84,30,-0.421862,0.000000,11.4334,0.000000,1.000000,-0.884229,-26.9,
18.8,1.565384,0.000000,401,384.68,30,-0.353269,0.000000,12.8819,0.000000,1.000000,-0.741010,-22.543,
18.8979,1.547273,0.000000,402.958,386.53,30,-0.302397,0.000000,13.9563,0.000000,1.000000,-0.634771,-19.311,
18.9958,1.531999,0.000000,404.917,388.39,30,-0.266327,0.000000,14.7179,0.000000,1.000000,-0.559464,-17.02,
19.0938,1.518034,0.000000,406.875,390.24,30,-0.240505,0.000000,15.2628,0.000000,1.000000,-0.505588,-15.381,
19.1917,1.504724,0.000000,408.833,392.11,30,-0.221596,0.000000,15.6615,0.000000,1.000000,-0.466176,-14.182,
19.2896,1.491632,0.000000,410.792,393.98,30,-0.207837,0.000000,15.9511,0.000000,1.000000,-0.437545,-13.311,
19.3875,1.478758,0.000000,412.75,395.85,30,-0.200058,0.000000,16.1138,0.000000,1.000000,-0.421471,-12.822,
19.4854,1.466538,0.000000,414.708,397.73,30,-0.194395,0.000000,16.2316,0.000000,1.000000,-0.409835,-12.468,
19.5833,1.454755,0.000000,416.667,399.61,30,-0.189738,0.000000,16.3282,0.000000,1.000000,-0.400302,-12.178,
19.6812,1.443409,0.000000,418.625,401.5,30,-0.187143,0.000000,16.3809,0.000000,1.000000,-0.395109,-12.02,
19.7792,1.432717,0.000000,420.583,403.4,30,-0.185859,0.000000,16.4056,0.000000,1.000000,-0.392676,-11.946,
19.8771,1.422898,0.000000,422.542,405.3,30,-0.185090,0.000000,16.4194,0.000000,1.000000,-0.391329,-11.905,
19.975,1.412642,0.000000,424.5,407.2,30,-0.184727,0.000000,16.4246,0.000000,1.000000,-0.390836,-11.89,
20.0729,1.402605,0.000000,426.458,409.11,30,-0.184784,0.000000,16.4208,0.000000,1.000000,-0.391230,-11.902,
20.1708,1.392568,0.000000,428.417,411.03,30,-0.185337,0.000000,16.4064,0.000000,1.000000,-0.392676,-11.946,
20.2688,1.383185,0.000000,430.375,412.94,30,-0.186293,0.000000,16.3833,0.000000,1.000000,-0.394977,-12.016,
20.3667,1.374457,0.000000,432.333,414.87,30,-0.187464,0.000000,16.3556,0.000000,1.000000,-0.397738,-12.1,
20.4646,1.366165,0.000000,434.292,416.8,30,-0.188820,0.000000,16.3238,0.000000,1.000000,-0.400894,-12.196,
20.5625,1.357874,0.000000,436.25,418.73,30,-0.190205,0.000000,16.2914,0.000000,1.000000,-0.404115,-12.294,
20.6604,1.349800,0.000000,438.208,420.67,30,-0.191790,0.000000,16.2547,0.000000,1.000000,-0.407764,-12.405,
20.7583,1.341727,0.000000,440.167,422.6,30,-0.193589,0.000000,16.2133,0.000000,1.000000,-0.411873,-12.53,
20.8562,1.333653,0.000000,442.125,424.55,30,-0.195355,0.000000,16.1726,0.000000,1.000000,-0.415916,-12.653,
20.9542,1.325580,0.000000,444.083,426.49,30,-0.197181,0.000000,16.1305,0.000000,1.000000,-0.420091,-12.78,
21.0521,1.317724,0.000000,446.042,428.44,30,-0.199081,0.000000,16.0868,0.000000,1.000000,-0.424430,-12.912,
21.15,1.310305,0.000000,448,430.39,30,-0.200933,0.000000,16.044,0.000000,1.000000,-0.428670,-13.041,
21.2479,1.302668,0.000000,449.958,432.34,30,-0.202829,0.000000,16.0003,0.000000,1.000000,-0.433009,-13.173,
21.3458,1.295686,0.000000,451.917,434.3,30,-0.205015,0.000000,15.9502,0.000000,1.000000,-0.437973,-13.324,
21.4438,1.288703,0.000000,453.875,436.26,30,-0.207245,0.000000,15.8991,0.000000,1.000000,-0.443035,-13.478,
21.5417,1.281284,0.000000,455.833,438.22,30,-0.209380,0.000000,15.85,0.000000,1.000000,-0.447900,-13.626,
21.6396,1.274957,0.000000,457.792,440.18,30,-0.211635,0.000000,15.7983,0.000000,1.000000,-0.453027,-13.782,
21.7375,1.267974,0.000000,459.75,442.14,30,-0.213949,0.000000,15.7452,0.000000,1.000000,-0.458287,-13.942,
21.8354,1.262083,0.000000,461.708,444.11,30,-0.216152,0.000000,15.6944,0.000000,1.000000,-0.463316,-14.095,
21.9333,1.255755,0.000000,463.667,446.07,30,-0.218292,0.000000,15.6449,0.000000,1.000000,-0.468214,-14.244,
22.0312,1.249209,0.000000,465.625,448.03,30,-0.220690,0.000000,15.5898,0.000000,1.000000,-0.473670,-14.41,
22.1292,1.242663,0.000000,467.583,450,30,-0.223299,0.000000,15.53,0.000000,1.000000,-0.479587,-14.59,
22.2271,1.236117,0.000000,469.542,451.97,30,-0.225905,0.000000,15.4702,0.000000,1.000000,-0.485504,-14.77,
22.325,1.230225,0.000000,471.5,453.93,30,-0.228508,0.000000,15.4103,0.000000,1.000000,-0.491421,-14.95,
22.4229,1.224552,0.000000,473.458,455.9,30,-0.230986,0.000000,15.3531,0.000000,1.000000,-0.497074,-15.122,
22.5208,1.219533,0.000000,475.417,457.87,30,-0.233278,0.000000,15.2999,0.000000,1.000000,-0.502334,-15.282,
22.6187,1.213860,0.000000,477.375,459.83,30,-0.235399,0.000000,15.2503,0.000000,1.000000,-0.507232,-15.431,
22.7167,1.207532,0.000000,479.333,461.8,30,-0.237533,0.000000,15.2004,0.000000,1.000000,-0.512162,-15.581,
22.8146,1.201641,0.000000,481.292,463.77,30,-0.239909,0.000000,15.1451,0.000000,1.000000,-0.517619,-15.747,
22.9125,1.195749,0.000000,483.25,465.74,30,-0.242282,0.000000,15.0898,0.000000,1.000000,-0.523075,-15.913,
23.0104,1.189858,0.000000,485.208,467.7,30,-0.244698,0.000000,15.0335,0.000000,1.000000,-0.528631,-16.082,
23.1083,1.184839,0.000000,487.167,469.67,30,-0.247385,0.000000,14.9712,0.000000,1.000000,-0.534777,-16.269,
23.2063,1.179820,0.000000,489.125,471.63,30,-0.250114,0.000000,14.9079,0.000000,1.000000,-0.541023,-16.459,
23.3042,1.174365,0.000000,491.083,473.6,30,-0.252915,0.000000,14.8429,0.000000,1.000000,-0.547433,-16.654,
23.4021,1.169128,0.000000,493.042,475.57,30,-0.255927,0.000000,14.7733,0.000000,1.000000,-0.554303,-16.863,
23.5,1.164110,0.000000,495,477.53,30,-0.259025,0.000000,14.7016,0.000000,1.000000,-0.561370,-17.078,
23.5979,1.159528,0.000000,496.958,479.5,30,-0.262151,0.000000,14.6292,0.000000,1.000000,-0.568503,-17.295,
23.6958,1.154727,0.000000,498.917,481.46,30,-0.265590,0.000000,14.5499,0.000000,1.000000,-0.576326,-17.533,
23.7937,1.150363,0.000000,500.875,483.43,30,-0.269132,0.000000,14.4682,0.000000,1.000000,-0.584380,-17.778,
23.8917,1.145781,0.000000,502.833,485.39,30,-0.272594,0.000000,14.3881,0.000000,1.000000,-0.592269,-18.018,
23.9896,1.140544,0.000000,504.792,487.36,30,-0.276384,0.000000,14.3007,0.000000,1.000000,-0.600881,-18.28,
24.0875,1.136180,0.000000,506.75,489.32,30,-0.280322,0.000000,14.2099,0.000000,1.000000,-0.609822,-18.552,
24.1854,1.131816,0.000000,508.708,491.29,30,-0.284375,0.000000,14.1164,0.000000,1.000000,-0.619026,-18.832,
24.2833,1.127015,0.000000,510.667,493.25,30,-0.288800,0.000000,14.0147,0.000000,1.000000,-0.629051,-19.137,
24.3813,1.123524,0.000000,512.625,495.22,30,-0.293342,0.000000,13.9102,0.000000,1.000000,-0.639340,-19.45,
24.4792,1.119596,0.000000,514.583,497.18,30,-0.297952,0.000000,13.804,0.000000,1.000000,-0.649793,-19.768,
24.5771,1.114796,0.000000,516.542,499.15,30,-0.302934,0.000000,13.6895,0.000000,1.000000,-0.661068,-20.111,
24.675,1.110868,0.000000,518.5,501.11,30,-0.307835,0.000000,13.5766,0.000000,1.000000,-0.672178,-20.449,
24.7729,1.106723,0.000000,520.458,503.07,30,-0.312655,0.000000,13.4653,0.000000,1.000000,-0.683124,-20.782,
24.8708,1.102359,0.000000,522.417,505.04,30,-0.317739,0.000000,13.348,0.000000,1.000000,-0.694662,-21.133,
24.9688,1.098649,0.000000,524.375,507,30,-0.322757,0.000000,13.232,0.000000,1.000000,-0.706068,-21.48,
25.0667,1.095376,0.000000,526.333,508.96,30,-0.327739,0.000000,13.1166,0.000000,1.000000,-0.717408,-21.825,
25.1646,1.091885,0.000000,528.292,510.93,30,-0.332850,0.000000,12.9982,0.000000,1.000000,-0.729045,-22.179,
25.2625,1.088830,0.000000,530.25,512.89,30,-0.338016,0.000000,12.8784,0.000000,1.000000,-0.740813,-22.537,
25.3604,1.085121,0.000000,532.208,514.85,30,-0.343324,0.000000,12.7552,0.000000,1.000000,-0.752909,-22.905,
25.4583,1.081629,0.000000,534.167,516.81,30,-0.348672,0.000000,12.631,0.000000,1.000000,-0.765104,-23.276,
25.5562,1.077702,0.000000,536.125,518.78,30,-0.354253,0.000000,12.5014,0.000000,1.000000,-0.777825,-23.663,
25.6542,1.074210,0.000000,538.083,520.74,30,-0.360080,0.000000,12.3661,0.000000,1.000000,-0.791105,-24.067,
25.7521,1.071592,0.000000,540.042,522.7,30,-0.366021,0.000000,12.2281,0.000000,1.000000,-0.804648,-24.479,
25.85,1.067883,0.000000,542,524.67,30,-0.372088,0.000000,12.087,0.000000,1.000000,-0.818487,-24.9,
25.9479,1.065046,0.000000,543.958,526.63,30,-0.378403,0.000000,11.9402,0.000000,1.000000,-0.832884,-25.338,
26.0458,1.061991,0.000000,545.917,528.59,30,-0.384770,0.000000,11.792,0.000000,1.000000,-0.847413,-25.78,
26.1438,1.058063,0.000000,547.875,530.56,30,-0.391336,0.000000,11.6391,0.000000,1.000000,-0.862402,-26.236,
26.2417,1.055227,0.000000,549.833,532.52,30,-0.397941,0.000000,11.4852,0.000000,1.000000,-0.877490,-26.695,
26.3396,1.052390,0.000000,551.792,534.49,30,-0.404492,0.000000,11.3321,0.000000,1.000000,-0.892479,-27.151,
26.4375,1.049335,0.000000,553.75,536.45,30,-0.411155,0.000000,11.1764,0.000000,1.000000,-0.907731,-27.615,
26.5354,1.046499,0.000000,555.708,538.42,30,-0.417690,0.000000,11.0232,0.000000,1.000000,-0.922720,-28.071,
26.6333,1.043226,0.000000,557.667,540.38,30,-0.424024,0.000000,10.8743,0.000000,1.000000,-0.937282,-28.514,
26.7312,1.040389,0.000000,559.625,542.35,30,-0.429978,0.000000,10.7336,0.000000,1.000000,-0.951022,-28.932,
26.8292,1.037552,0.000000,561.583,544.31,30,-0.435762,0.000000,10.5966,0.000000,1.000000,-0.964401,-29.339,
26.9271,1.034716,0.000000,563.542,546.27,30,-0.441866,0.000000,10.4521,0.000000,1.000000,-0.978502,-29.768,
27.025,1.032097,0.000000,565.5,548.24,30,-0.448318,0.000000,10.2996,0.000000,1.000000,-0.993393,-30.221,
27.1229,1.029479,0.000000,567.458,550.2,30,-0.455014,0.000000,10.1413,0.000000,1.000000,-1.008842,-30.691,
27.2208,1.026642,0.000000,569.417,552.17,30,-0.461970,0.000000,9.976936,0.000000,1.000000,-1.024883,-31.179,
27.3188,1.024242,0.000000,571.375,554.13,30,-0.469034,0.000000,9.809824,0.000000,1.000000,-1.041187,-31.675,
27.4167,1.021405,0.000000,573.333,556.09,30,-0.476135,0.000000,9.641625,0.000000,1.000000,-1.057590,-32.174,
27.5146,1.019005,0.000000,575.292,558.05,30,-0.483286,0.000000,9.472003,0.000000,1.000000,-1.074124,-32.677,
27.6125,1.015732,0.000000,577.25,560.02,30,-0.490768,0.000000,9.294607,0.000000,1.000000,-1.091414,-33.203,
27.7104,1.013332,0.000000,579.208,561.98,30,-0.498491,0.000000,9.111452,0.000000,1.000000,-1.109263,-33.746,
27.8083,1.011368,0.000000,581.167,563.94,30,-0.506280,0.000000,8.926529,0.000000,1.000000,-1.127276,-34.294,
27.9062,1.008531,0.000000,583.125,565.91,30,-0.514442,0.000000,8.732814,0.000000,1.000000,-1.146144,-34.868,
28.0042,1.005913,0.000000,585.083,567.87,30,-0.522919,0.000000,8.531658,0.000000,1.000000,-1.165735,-35.464,
28.1021,1.003731,0.000000,587.042,569.83,30,-0.531532,0.000000,8.327052,0.000000,1.000000,-1.185655,-36.07,
28.2,1.000894,0.000000,589,571.8,30,-0.540503,0.000000,8.113970,0.000000,1.000000,-1.206397,-36.701,
28.2979,0.998931,0.000000,590.958,573.76,30,-0.549831,0.000000,7.892428,0.000000,1.000000,-1.227960,-37.357,
28.3958,0.996530,0.000000,592.917,575.72,30,-0.559369,0.000000,7.665749,0.000000,1.000000,-1.250016,-38.028,
28.4937,0.994130,0.000000,594.875,577.69,30,-0.569100,0.000000,7.434249,0.000000,1.000000,-1.272533,-38.713,
28.5917,0.991730,0.000000,596.833,579.66,30,-0.579302,0.000000,7.191584,0.000000,1.000000,-1.296134,-39.431,
28.6896,0.989111,0.000000,598.792,581.62,30,-0.589772,0.000000,6.942440,0.000000,1.000000,-1.320360,-40.168,
28.7875,0.986711,0.000000,600.75,583.58,30,-0.600405,0.000000,6.689138,0.000000,1.000000,-1.344981,-40.917,
28.8854,0.984529,0.000000,602.708,585.55,30,-0.611172,0.000000,6.432328,0.000000,1.000000,-1.369930,-41.676,
28.9833,0.982347,0.000000,604.667,587.52,30,-0.622203,0.000000,6.169006,0.000000,1.000000,-1.395503,-42.454,
29.0813,0.980602,0.000000,606.625,589.48,30,-0.633761,0.000000,5.893161,0.000000,1.000000,-1.422293,-43.269,
29.1792,0.978420,0.000000,608.583,591.45,30,-0.645745,0.000000,5.607091,0.000000,1.000000,-1.450069,-44.114,
29.2771,0.976238,0.000000,610.542,593.42,30,-0.658124,0.000000,5.311473,0.000000,1.000000,-1.478765,-44.987,
29.375,0.974055,0.000000,612.5,595.39,30,-0.670969,0.000000,5.004622,0.000000,1.000000,-1.508546,-45.893,
29.4729,0.971655,0.000000,614.458,597.35,30,-0.684003,0.000000,4.692912,0.000000,1.000000,-1.538788,-46.813,
29.5708,0.969910,0.000000,616.417,599.32,30,-0.697416,0.000000,4.371942,0.000000,1.000000,-1.569917,-47.76,
29.6687,0.967728,0.000000,618.375,601.29,30,-0.711219,0.000000,4.041388,0.000000,1.000000,-1.601966,-48.735,
29.7667,0.965327,0.000000,620.333,603.26,30,-0.725486,0.000000,3.699562,0.000000,1.000000,-1.635100,-49.743,
29.8646,0.963364,0.000000,622.292,605.23,30,-0.740159,0.000000,3.347795,0.000000,1.000000,-1.669187,-50.78,
29.9625,0.960745,0.000000,624.25,607.2,30,-0.755163,0.000000,2.987752,0.000000,1.000000,-1.704063,-51.841,
30.0604,0.959000,0.000000,626.208,609.17,30,-0.770541,0.000000,2.618418,0.000000,1.000000,-1.739826,-52.929,
30.1583,0.957690,0.000000,628.167,611.15,30,-0.786029,0.000000,2.245798,0.000000,1.000000,-1.775886,-54.026,
30.2563,0.955945,0.000000,630.125,613.12,30,-0.801702,0.000000,1.868253,0.000000,1.000000,-1.812405,-55.137,
30.3542,0.954199,0.000000,632.083,615.09,30,-0.817748,0.000000,1.481391,0.000000,1.000000,-1.849813,-56.275,
30.4521,0.952235,0.000000,634.042,617.06,30,-0.834065,0.000000,1.087550,0.000000,1.000000,-1.887877,-57.433,
30.55,0.950490,0.000000,636,619.04,30,-0.850447,0.000000,0.691396,0.000000,1.000000,-1.926139,-58.597,
30.6479,0.948308,0.000000,637.958,621.01,30,-0.867054,0.000000,0.289281,0.000000,1.000000,-1.964960,-59.778,
30.7458,0.946344,0.000000,639.917,622.98,30,-0.883975,0.000000,-0.120847,0.000000,1.000000,-2.004536,-60.982,
30.8438,0.944380,0.000000,641.875,624.96,30,-0.901062,0.000000,-0.535665,0.000000,1.000000,-2.044540,-62.199,
30.9417,0.942853,0.000000,643.833,626.93,30,-0.918099,0.000000,-0.950080,0.000000,1.000000,-2.084478,-63.414,
31.0396,0.941325,0.000000,645.792,628.91,30,-0.935475,0.000000,-1.373238,0.000000,1.000000,-2.125238,-64.654,
31.1375,0.939580,0.000000,647.75,630.89,30,-0.953175,0.000000,-1.804783,0.000000,1.000000,-2.166787,-65.918,
31.2354,0.938052,0.000000,649.708,632.86,30,-0.971087,0.000000,-2.242001,0.000000,1.000000,-2.208862,-67.198,
31.3333,0.936306,0.000000,651.667,634.84,30,-0.988989,0.000000,-2.679918,0.000000,1.000000,-2.250970,-68.479,
31.4312,0.934561,0.000000,653.625,636.81,30,-1.006882,0.000000,-3.118471,0.000000,1.000000,-2.293110,-69.761,
31.5292,0.932597,0.000000,655.583,638.79,30,-1.024939,0.000000,-3.561777,0.000000,1.000000,-2.335678,-71.056,
31.6271,0.931070,0.000000,657.542,640.77,30,-1.043276,0.000000,-4.012506,0.000000,1.000000,-2.378936,-72.372,
31.725,0.929106,0.000000,659.5,642.74,30,-1.061763,0.000000,-4.467596,0.000000,1.000000,-2.422589,-73.7,
31.8229,0.927360,0.000000,661.458,644.72,30,-1.080282,0.000000,-4.924436,0.000000,1.000000,-2.466373,-75.032,
31.9208,0.926051,0.000000,663.417,646.69,30,-1.098983,0.000000,-5.386325,0.000000,1.000000,-2.510617,-76.378,
32.0187,0.924742,0.000000,665.375,648.67,30,-1.117845,0.000000,-5.853017,0.000000,1.000000,-2.555289,-77.737,
32.1167,0.923433,0.000000,667.333,650.64,30,-1.136682,0.000000,-6.320051,0.000000,1.000000,-2.599961,-79.096,
32.2146,0.921905,0.000000,669.292,652.62,30,-1.155682,0.000000,-6.791905,0.000000,1.000000,-2.645059,-80.468,
32.3125,0.920160,0.000000,671.25,654.6,30,-1.174901,0.000000,-7.269897,0.000000,1.000000,-2.690717,-81.857,
32.4104,0.919068,0.000000,673.208,656.57,30,-1.193982,0.000000,-7.745546,0.000000,1.000000,-2.736112,-83.238,
32.5083,0.917105,0.000000,675.167,658.55,30,-1.213067,0.000000,-8.222328,0.000000,1.000000,-2.781573,-84.621,
32.6063,0.915359,0.000000,677.125,660.52,30,-1.232241,0.000000,-8.702179,0.000000,1.000000,-2.827296,-86.012,
32.7042,0.914486,0.000000,679.083,662.49,30,-1.251305,0.000000,-9.180422,0.000000,1.000000,-2.872822,-87.397,
32.8021,0.912741,0.000000,681.042,664.47,30,-1.270373,0.000000,-9.659818,0.000000,1.000000,-2.918414,-88.784,
32.9,0.911213,0.000000,683,666.44,30,-1.289529,0.000000,-10.1423,0.000000,1.000000,-2.964269,-90.179,
32.9979,0.910340,0.000000,684.958,668.42,30,-1.308706,0.000000,-10.6263,0.000000,1.000000,-3.010223,-91.577,
33.0958,0.909249,0.000000,686.917,670.39,30,-1.327788,0.000000,-11.109,0.000000,1.000000,-3.056012,-92.97,
33.1938,0.907940,0.000000,688.875,672.37,30,-1.346939,0.000000,-11.5945,0.000000,1.000000,-3.102031,-94.37,
33.2917,0.906849,0.000000,690.833,674.34,30,-1.366184,0.000000,-12.0832,0.000000,1.000000,-3.148314,-95.778,
33.3896,0.905540,0.000000,692.792,676.31,30,-1.385332,0.000000,-12.5706,0.000000,1.000000,-3.194432,-97.181,
33.4875,0.904667,0.000000,694.75,678.29,30,-1.404270,0.000000,-13.0542,0.000000,1.000000,-3.240122,-98.571,
33.5854,0.903140,0.000000,696.708,680.26,30,-1.423154,0.000000,-13.5375,0.000000,1.000000,-3.285747,-99.959,
33.6833,0.901831,0.000000,698.667,682.23,30,-1.442086,0.000000,-14.0229,0.000000,1.000000,-3.331536,-101.352,
33.7812,0.900739,0.000000,700.625,684.21,30,-1.460866,0.000000,-14.5059,0.000000,1.000000,-3.377030,-102.736,
33.8792,0.899212,0.000000,702.583,686.18,30,-1.479448,0.000000,-14.9852,0.000000,1.000000,-3.422129,-104.108,
33.9771,0.898557,0.000000,704.542,688.15,30,-1.498048,0.000000,-15.466,0.000000,1.000000,-3.467326,-105.483,
34.075,0.897030,0.000000,706.5,690.13,30,-1.516728,0.000000,-15.9497,0.000000,1.000000,-3.512754,-106.865,
34.1729,0.895939,0.000000,708.458,692.1,30,-1.535323,0.000000,-16.4325,0.000000,1.000000,-3.558050,-108.243,
34.2708,0.894412,0.000000,710.417,694.08,30,-1.553848,0.000000,-16.9149,0.000000,1.000000,-3.603248,-109.618,
34.3687,0.893539,0.000000,712.375,696.05,30,-1.572226,0.000000,-17.3946,0.000000,1.000000,-3.648149,-110.984,
34.4667,0.892884,0.000000,714.333,698.02,30,-1.590364,0.000000,-17.8697,0.000000,1.000000,-3.692558,-112.335,
34.5646,0.892011,0.000000,716.292,699.99,30,-1.608639,0.000000,-18.3492,0.000000,1.000000,-3.737328,-113.697,
34.6625,0.891139,0.000000,718.25,701.97,30,-1.626943,0.000000,-18.8305,0.000000,1.000000,-3.782230,-115.063,
34.7604,0.890048,0.000000,720.208,703.94,30,-1.645068,0.000000,-19.3086,0.000000,1.000000,-3.826770,-116.418,
34.8583,0.888738,0.000000,722.167,705.92,30,-1.663000,0.000000,-19.7832,0.000000,1.000000,-3.870916,-117.761,
34.9562,0.887647,0.000000,724.125,707.89,30,-1.681021,0.000000,-20.2609,0.000000,1.000000,-3.915324,-119.112,
35.0542,0.886338,0.000000,726.083,709.86,30,-1.698877,0.000000,-20.7358,0.000000,1.000000,-3.959404,-120.453,
35.1521,0.885029,0.000000,728.042,711.84,30,-1.716570,0.000000,-21.208,0.000000,1.000000,-4.003156,-121.784,
35.25,0.884593,0.000000,730,713.81,30,-1.734197,0.000000,-21.6795,0.000000,1.000000,-4.046808,-123.112,
35.3479,0.883502,0.000000,731.958,715.78,30,-1.751769,0.000000,-22.1509,0.000000,1.000000,-4.090395,-124.438,
35.4458,0.883065,0.000000,733.917,717.76,30,-1.769390,0.000000,-22.6247,0.000000,1.000000,-4.134146,-125.769,
35.5438,0.882192,0.000000,735.875,719.73,30,-1.787032,0.000000,-23.1,0.000000,1.000000,-4.177996,-127.103,
35.6417,0.881101,0.000000,737.833,721.7,30,-1.804638,0.000000,-23.5755,0.000000,1.000000,-4.221813,-128.436,
35.7396,0.880010,0.000000,739.792,723.68,30,-1.822006,0.000000,-24.0465,0.000000,1.000000,-4.265137,-129.754,
35.8375,0.878919,0.000000,741.75,725.65,30,-1.839257,0.000000,-24.5157,0.000000,1.000000,-4.308231,-131.065,
35.9354,0.878265,0.000000,743.708,727.62,30,-1.856539,0.000000,-24.9868,0.000000,1.000000,-4.351456,-132.38,
36.0333,0.876737,0.000000,745.667,729.59,30,-1.873811,0.000000,-25.4588,0.000000,1.000000,-4.394714,-133.696,
36.1313,0.876301,0.000000,747.625,731.56,30,-1.890893,0.000000,-25.9273,0.000000,1.000000,-4.437578,-135,
36.2292,0.875210,0.000000,749.583,733.54,30,-1.907964,0.000000,-26.3968,0.000000,1.000000,-4.480475,-136.305,
36.3271,0.874337,0.000000,751.542,735.52,30,-1.924931,0.000000,-26.8649,0.000000,1.000000,-4.523174,-137.604,
36.425,0.873901,0.000000,753.5,737.49,30,-1.941624,0.000000,-27.3273,0.000000,1.000000,-4.565282,-138.885,
36.5229,0.873028,0.000000,755.458,739.46,30,-1.958129,0.000000,-27.7862,0.000000,1.000000,-4.606995,-140.154,
36.6208,0.871719,0.000000,757.417,741.43,30,-1.974553,0.000000,-28.2443,0.000000,1.000000,-4.648577,-141.419,
36.7188,0.870846,0.000000,759.375,743.4,30,-1.990803,0.000000,-28.6993,0.000000,1.000000,-4.689797,-142.673,
36.8167,0.869537,0.000000,761.333,745.38,30,-2.006766,0.000000,-29.1484,0.000000,1.000000,-4.730392,-143.908,
36.9146,0.868664,0.000000,763.292,747.35,30,-2.022725,0.000000,-29.5984,0.000000,1.000000,-4.771021,-145.144,
37.0125,0.867791,0.000000,765.25,749.32,30,-2.038688,0.000000,-30.0497,0.000000,1.000000,-4.811715,-146.382,
37.1104,0.867355,0.000000,767.208,751.29,30,-2.054617,0.000000,-30.5013,0.000000,1.000000,-4.852377,-147.619,
37.2083,0.866482,0.000000,769.167,753.27,30,-2.070526,0.000000,-30.9536,0.000000,1.000000,-4.893038,-148.856,
37.3062,0.865609,0.000000,771.125,755.24,30,-2.085998,0.000000,-31.3961,0.000000,1.000000,-4.932713,-150.063,
37.4042,0.864954,0.000000,773.083,757.21,30,-2.101374,0.000000,-31.8376,0.000000,1.000000,-4.972224,-151.265,
37.5021,0.863427,0.000000,775.042,759.19,30,-2.116945,0.000000,-32.2849,0.000000,1.000000,-5.012228,-152.482,
37.6,0.862336,0.000000,777,761.16,30,-2.132506,0.000000,-32.7332,0.000000,1.000000,-5.052265,-153.7,
37.6979,0.861463,0.000000,778.958,763.13,30,-2.148005,0.000000,-33.181,0.000000,1.000000,-5.092203,-154.915,
37.7958,0.860590,0.000000,780.917,765.1,30,-2.163403,0.000000,-33.6275,0.000000,1.000000,-5.131944,-156.124,
37.8937,0.859936,0.000000,782.875,767.07,30,-2.178890,0.000000,-34.0773,0.000000,1.000000,-5.171948,-157.341,
37.9917,0.859063,0.000000,784.833,769.05,30,-2.194188,0.000000,-34.5239,0.000000,1.000000,-5.211557,-158.546,
38.0896,0.857754,0.000000,786.792,771.02,30,-2.209498,0.000000,-34.9716,0.000000,1.000000,-5.251233,-159.753,
38.1875,0.856881,0.000000,788.75,772.99,30,-2.224758,0.000000,-35.4194,0.000000,1.000000,-5.290842,-160.958,
38.2854,0.855572,0.000000,790.708,774.96,30,-2.239779,0.000000,-35.8623,0.000000,1.000000,-5.329926,-162.147,
38.3833,0.854917,0.000000,792.667,776.93,30,-2.254861,0.000000,-36.308,0.000000,1.000000,-5.369206,-163.342,
38.4813,0.854044,0.000000,794.625,778.9,30,-2.269968,0.000000,-36.7554,0.000000,1.000000,-5.408586,-164.54,
38.5792,0.853390,0.000000,796.583,780.88,30,-2.285054,0.000000,-37.2036,0.000000,1.000000,-5.447965,-165.738,
38.6771,0.852299,0.000000,798.542,782.85,30,-2.300229,0.000000,-37.6552,0.000000,1.000000,-5.487608,-166.944,
38.775,0.851208,0.000000,800.5,784.82,30,-2.315501,0.000000,-38.1103,0.000000,1.000000,-5.527513,-168.158,
38.8729,0.850553,0.000000,802.458,786.79,30,-2.330773,0.000000,-38.5669,0.000000,1.000000,-5.567484,-169.374,
38.9708,0.849026,0.000000,804.417,788.76,30,-2.345907,0.000000,-39.021,0.000000,1.000000,-5.607159,-170.581,
39.0688,0.848371,0.000000,806.375,790.73,30,-2.360881,0.000000,-39.4724,0.000000,1.000000,-5.646506,-171.778,
39.1667,0.847716,0.000000,808.333,792.71,30,-2.375863,0.000000,-39.9254,0.000000,1.000000,-5.685918,-172.977,
39.2646,0.846843,0.000000,810.292,794.68,30,-2.390882,0.000000,-40.3804,0.000000,1.000000,-5.725462,-174.18,
39.3625,0.845971,0.000000,812.25,796.65,30,-2.405871,0.000000,-40.8358,0.000000,1.000000,-5.764973,-175.382,
39.4604,0.844661,0.000000,814.208,798.62,30,-2.420822,0.000000,-41.2916,0.000000,1.000000,-5.804451,-176.583,
39.5583,0.843352,0.000000,816.167,800.59,30,-2.435745,0.000000,-41.7478,0.000000,1.000000,-5.843896,-177.783,
39.6562,0.842043,0.000000,818.125,802.56,30,-2.450632,0.000000,-42.2044,0.000000,1.000000,-5.883308,-178.982,
39.7542,0.840952,0.000000,820.083,804.53,30,-2.465505,0.000000,-42.6619,0.000000,1.000000,-5.922720,-180.181,
39.8521,0.840516,0.000000,822.042,806.5,30,-2.480203,0.000000,-43.1163,0.000000,1.000000,-5.961771,-181.369,
39.95,0.839861,0.000000,824,808.47,30,-2.494767,0.000000,-43.5683,0.000000,1.000000,-6.000526,-182.548,
40.0479,0.839425,0.000000,825.958,810.44,30,-2.509185,0.000000,-44.0179,0.000000,1.000000,-6.038985,-183.718,
40.1458,0.838770,0.000000,827.917,812.41,30,-2.523437,0.000000,-44.4645,0.000000,1.000000,-6.077082,-184.877,
40.2437,0.836806,0.000000,829.875,814.38,30,-2.537725,0.000000,-44.9133,0.000000,1.000000,-6.115311,-186.04,
40.3417,0.835715,0.000000,831.833,816.35,30,-2.552143,0.000000,-45.3668,0.000000,1.000000,-6.153902,-187.214,
40.4396,0.834188,0.000000,833.792,818.32,30,-2.566590,0.000000,-45.8221,0.000000,1.000000,-6.192591,-188.391,
40.5375,0.833097,0.000000,835.75,820.29,30,-2.580782,0.000000,-46.2723,0.000000,1.000000,-6.230721,-189.551,
40.6354,0.832660,0.000000,837.708,822.25,30,-2.594932,0.000000,-46.7224,0.000000,1.000000,-6.268786,-190.709,
40.7333,0.832224,0.000000,839.667,824.22,30,-2.609119,0.000000,-47.175,0.000000,1.000000,-6.306982,-191.871,
40.8312,0.831569,0.000000,841.625,826.19,30,-2.623318,0.000000,-47.6291,0.000000,1.000000,-6.345244,-193.035,
40.9292,0.830260,0.000000,843.583,828.16,30,-2.637566,0.000000,-48.0858,0.000000,1.000000,-6.383670,-194.204,
41.0271,0.829169,0.000000,845.542,830.13,30,-2.651593,0.000000,-48.5381,0.000000,1.000000,-6.421603,-195.358,
41.125,0.827642,0.000000,847.5,832.09,30,-2.665483,0.000000,-48.9878,0.000000,1.000000,-6.459240,-196.503,
41.2229,0.826769,0.000000,849.458,834.06,30,-2.679276,0.000000,-49.4365,0.000000,1.000000,-6.496680,-197.642,
41.3208,0.825896,0.000000,851.417,836.03,30,-2.692962,0.000000,-49.884,0.000000,1.000000,-6.533923,-198.775,
41.4188,0.824369,0.000000,853.375,838,30,-2.706479,0.000000,-50.3281,0.000000,1.000000,-6.570771,-199.896,
41.5167,0.823714,0.000000,855.333,839.97,30,-2.719688,0.000000,-50.7656,0.000000,1.000000,-6.606929,-200.996,
41.6146,0.821968,0.000000,857.292,841.93,30,-2.732739,0.000000,-51.1999,0.000000,1.000000,-6.642726,-202.085,
41.7125,0.820877,0.000000,859.25,843.9,30,-2.745464,0.000000,-51.6271,0.000000,1.000000,-6.677766,-203.151,
41.8104,0.819350,0.000000,861.208,845.87,30,-2.757993,0.000000,-52.0506,0.000000,1.000000,-6.712379,-204.204,
41.9083,0.817604,0.000000,863.167,847.83,30,-2.770243,0.000000,-52.4676,0.000000,1.000000,-6.746335,-205.237,
42.0063,0.816513,0.000000,865.125,849.8,30,-2.782005,0.000000,-52.8732,0.000000,1.000000,-6.779140,-206.235,
42.1042,0.814986,0.000000,867.083,851.77,30,-2.793269,0.000000,-53.267,0.000000,1.000000,-6.810762,-207.197,
42.2021,0.814331,0.000000,869.042,853.73,30,-2.803903,0.000000,-53.645,0.000000,1.000000,-6.840872,-208.113,
42.3,0.814113,0.000000,871,855.7,30,-2.813914,0.000000,-54.008,0.000000,1.000000,-6.869502,-208.984,
42.3979,0.812586,0.000000,872.958,857.67,30,-2.823320,0.000000,-54.3562,0.000000,1.000000,-6.896687,-209.811,
42.4958,0.810840,0.000000,874.917,859.63,30,-2.832276,0.000000,-54.6931,0.000000,1.000000,-6.922786,-210.605,
42.5938,0.809749,0.000000,876.875,861.6,30,-2.840712,0.000000,-55.0175,0.000000,1.000000,-6.947637,-211.361,
42.6917,0.808003,0.000000,878.833,863.56,30,-2.848334,0.000000,-55.321,0.000000,1.000000,-6.970515,-212.057,
42.7896,0.806258,0.000000,880.792,865.53,30,-2.855139,0.000000,-55.6041,0.000000,1.000000,-6.991421,-212.693,
42.8875,0.805385,0.000000,882.75,867.49,30,-2.861065,0.000000,-55.8644,0.000000,1.000000,-7.010190,-213.264,
42.9854,0.803858,0.000000,884.708,869.45,30,-2.866027,0.000000,-56.0996,0.000000,1.000000,-7.026593,-213.763,
43.0833,0.801894,0.000000,886.667,871.41,30,-2.870215,0.000000,-56.3151,0.000000,1.000000,-7.041122,-214.205,
43.1812,0.800585,0.000000,888.625,873.38,30,-2.873480,0.000000,-56.5067,0.000000,1.000000,-7.053382,-214.578,
43.2792,0.799275,0.000000,890.583,875.34,30,-2.875732,0.000000,-56.6718,0.000000,1.000000,-7.063178,-214.876,
43.3771,0.797312,0.000000,892.542,877.3,30,-2.876786,0.000000,-56.8051,0.000000,1.000000,-7.070015,-215.084,
43.475,0.796002,0.000000,894.5,879.26,30,-2.877074,0.000000,-56.9185,0.000000,1.000000,-7.074979,-215.235,
43.5729,0.794039,0.000000,896.458,881.21,30,-2.876606,0.000000,-57.0115,0.000000,1.000000,-7.078069,-215.329,
43.6708,0.792729,0.000000,898.417,883.17,30,-2.875539,0.000000,-57.0891,0.000000,1.000000,-7.079679,-215.378,
43.7687,0.790984,0.000000,900,885.13,30,-2.873992,0.000000,-57.1542,0.000000,1.000000,-7.080107,-215.391,
43.8667,0.790547,0.000000,900,887.08,11.2,-2.871769,0.000000,-57.201,0.000000,1.000000,-7.078857,-215.353,
43.9646,0.792293,0.000000,900,889.04,10,-2.867974,0.000000,-57.2056,0.000000,1.000000,-7.073697,-215.196,
44.0625,0.793602,0.000000,900,890.76,10,-2.857830,0.000000,-57.0251,0.000000,1.000000,-7.052331,-214.546,
44.1604,0.795130,0.000000,900,892.19,10.1,-2.888304,0.000000,-57.9289,0.000000,1.000000,-7.130531,-216.925,
44.2583,0.796221,0.000000,900,893.39,10.1,-2.919103,0.000000,-58.8307,0.000000,1.000000,-7.209125,-219.316,
44.3563,0.794693,0.000000,900,894.45,10.2,-2.939780,0.000000,-59.4514,0.000000,1.000000,-7.262475,-220.939,
44.4542,0.792293,0.000000,900,895.4,10.2,-2.950698,0.000000,-59.8021,0.000000,1.000000,-7.291532,-221.823,
44.5521,0.790547,0.000000,900,896.29,10.2,-2.953599,0.000000,-59.9316,0.000000,1.000000,-7.300638,-222.1,
44.65,0.788365,0.000000,900,897.11,10.2,-2.951694,0.000000,-59.927,0.000000,1.000000,-7.297745,-222.012,
44.7479,0.786838,0.000000,900,897.89,10.2,-2.946422,0.000000,-59.8281,0.000000,1.000000,-7.286405,-221.667,
44.7542,0.786620,0.000000,900,897.94,10.2,-2.946019,0.000000,-59.82,0.000000,1.000000,-7.285517,-221.64,