File: data/c25.csv
Time,Unsubtracted Weight,Baseline Weight,Program Temperature,Sample Temperature,Approx. Gas Flow,Unsubtracted Delta T,Baseline Delta T,Unsubtracted Heat Flow,Baseline Heat Flow,Heat Flow Calibration,Unsubstracted Microvolt,R25 Diagnostic Signal,
0.000000,10.9363,0.000000,25.0521,25.27,30,-0.043516,0.000000,20,0.000000,1.000000,-0.057458,-1.748000,
0.079167,10.9315,0.000000,26.9792,25.29,30,-0.043164,0.000000,20.0049,0.000000,1.000000,-0.056998,-1.734000,
0.158333,10.9295,0.000000,28.9583,25.3,30,-0.043263,0.000000,20.0035,0.000000,1.000000,-0.057130,-1.738000,
0.237500,10.9284,0.000000,30.9375,25.31,30,-0.043334,0.000000,20.0025,0.000000,1.000000,-0.057228,-1.741000,
0.316667,10.9291,0.000000,32.9167,25.44,30,-0.044606,0.000000,19.9842,0.000000,1.000000,-0.058938,-1.793000,
0.395833,10.9311,0.000000,34.8958,25.74,30,-0.058546,0.000000,19.786,0.000000,1.000000,-0.077444,-2.356000,
0.475000,10.9346,0.000000,36.875,26.22,30,-0.080393,0.000000,19.4745,0.000000,1.000000,-0.106535,-3.241000,
0.554167,10.9381,0.000000,38.8542,26.87,30,-0.108766,0.000000,19.0684,0.000000,1.000000,-0.144468,-4.395000,
0.633333,10.9407,0.000000,40.8333,27.68,30,-0.142035,0.000000,18.5897,0.000000,1.000000,-0.189205,-5.756000,
0.712500,10.942,0.000000,42.8125,28.62,30,-0.179185,0.000000,18.0519,0.000000,1.000000,-0.239498,-7.286000,
0.791667,10.9422,0.000000,44.7917,29.71,30,-0.220153,0.000000,17.4547,0.000000,1.000000,-0.295378,-8.986000,
0.870833,10.9415,0.000000,46.7708,30.93,30,-0.261285,0.000000,16.8496,0.000000,1.000000,-0.352048,-10.71,
0.950000,10.94,0.000000,48.75,32.26,30,-0.302880,0.000000,16.2316,0.000000,1.000000,-0.409966,-12.472,
1.029167,10.9372,0.000000,50.7292,33.71,30,-0.337311,0.000000,15.7112,0.000000,1.000000,-0.458813,-13.958,
1.108333,10.9335,0.000000,52.7083,35.25,30,-0.356417,0.000000,15.4084,0.000000,1.000000,-0.487345,-14.826,
1.187500,10.9287,0.000000,54.6875,36.88,30,-0.374165,0.000000,15.1218,0.000000,1.000000,-0.514397,-15.649,
1.266667,10.9226,0.000000,56.6667,38.59,30,-0.392701,0.000000,14.8198,0.000000,1.000000,-0.542929,-16.517,
1.345833,10.9149,0.000000,58.6458,40.39,30,-0.413997,0.000000,14.473,0.000000,1.000000,-0.575702,-17.514,
1.425000,10.9055,0.000000,60.625,42.26,30,-0.439085,0.000000,14.0653,0.000000,1.000000,-0.614227,-18.686,
1.504167,10.8953,0.000000,62.6042,44.21,30,-0.468019,0.000000,13.5947,0.000000,1.000000,-0.658701,-20.039,
1.583333,10.8833,0.000000,64.5833,46.21,30,-0.499038,0.000000,13.0872,0.000000,1.000000,-0.706693,-21.499,
1.662500,10.8706,0.000000,66.5625,48.26,30,-0.531093,0.000000,12.5587,0.000000,1.000000,-0.756722,-23.021,
1.741667,10.8564,0.000000,68.5417,50.34,30,-0.563556,0.000000,12.0178,0.000000,1.000000,-0.807968,-24.58,
1.820833,10.8407,0.000000,70.5208,52.44,30,-0.595742,0.000000,11.4762,0.000000,1.000000,-0.859345,-26.143,
1.900000,10.8233,0.000000,72.5,54.56,30,-0.627013,0.000000,10.9436,0.000000,1.000000,-0.909934,-27.682,
1.979167,10.8039,0.000000,74.4792,56.67,30,-0.657296,0.000000,10.4213,0.000000,1.000000,-0.959602,-29.193,
2.058333,10.7849,0.000000,76.4583,58.79,30,-0.685719,0.000000,9.923964,0.000000,1.000000,-1.006969,-30.634,
2.137500,10.7674,0.000000,78.4375,60.9,30,-0.712141,0.000000,9.454016,0.000000,1.000000,-1.051805,-31.998,
2.216667,10.7482,0.000000,80.4167,63,30,-0.734342,0.000000,9.047274,0.000000,1.000000,-1.090724,-33.182,
2.295833,10.729,0.000000,82.3958,65.1,30,-0.751156,0.000000,8.723174,0.000000,1.000000,-1.121885,-34.13,
2.375000,10.7105,0.000000,84.375,67.19,30,-0.763251,0.000000,8.472493,0.000000,1.000000,-1.146144,-34.868,
2.454167,10.6932,0.000000,86.3542,69.26,30,-0.770723,0.000000,8.295080,0.000000,1.000000,-1.163500,-35.396,
2.533333,10.676,0.000000,88.3333,71.31,30,-0.772569,0.000000,8.207863,0.000000,1.000000,-1.172342,-35.665,
2.612500,10.6592,0.000000,90.3125,73.35,30,-0.769901,0.000000,8.194390,0.000000,1.000000,-1.174216,-35.722,
2.691667,10.643,0.000000,92.2917,75.37,30,-0.762378,0.000000,8.261120,0.000000,1.000000,-1.168496,-35.548,
2.770833,10.6271,0.000000,94.2708,77.38,30,-0.750143,0.000000,8.406227,0.000000,1.000000,-1.155348,-35.148,
2.850000,10.6129,0.000000,96.25,79.37,30,-0.734482,0.000000,8.610473,0.000000,1.000000,-1.136579,-34.577,
2.929167,10.599,0.000000,98.2292,81.35,30,-0.715848,0.000000,8.866515,0.000000,1.000000,-1.112879,-33.856,
3.008333,10.5865,0.000000,100.208,83.31,30,-0.695523,0.000000,9.153790,0.000000,1.000000,-1.086188,-33.044,
3.087500,10.575,0.000000,102.188,85.25,30,-0.673388,0.000000,9.474686,0.000000,1.000000,-1.056275,-32.134,
3.166667,10.5638,0.000000,104.167,87.18,30,-0.650469,0.000000,9.812210,0.000000,1.000000,-1.024752,-31.175,
3.245833,10.5531,0.000000,106.146,89.1,30,-0.627297,0.000000,10.1577,0.000000,1.000000,-0.992440,-30.192,
3.325000,10.5429,0.000000,108.125,91.01,30,-0.603863,0.000000,10.5111,0.000000,1.000000,-0.959339,-29.185,
3.404167,10.5339,0.000000,110.104,92.9,30,-0.580534,0.000000,10.8662,0.000000,1.000000,-0.926040,-28.172,
3.483333,10.5256,0.000000,112.083,94.78,30,-0.557575,0.000000,11.2185,0.000000,1.000000,-0.892972,-27.166,
3.562500,10.5182,0.000000,114.062,96.66,30,-0.535201,0.000000,11.5643,0.000000,1.000000,-0.860496,-26.178,
3.641667,10.5115,0.000000,116.042,98.52,30,-0.513563,0.000000,11.9007,0.000000,1.000000,-0.828874,-25.216,
3.720833,10.5054,0.000000,118.021,100.38,30,-0.492984,0.000000,12.222,0.000000,1.000000,-0.798665,-24.297,
3.800000,10.4995,0.000000,120,102.23,30,-0.473497,0.000000,12.5274,0.000000,1.000000,-0.769936,-23.423,
3.879167,10.4938,0.000000,121.979,104.07,30,-0.454756,0.000000,12.8224,0.000000,1.000000,-0.742160,-22.578,
3.958333,10.489,0.000000,123.958,105.91,30,-0.437114,0.000000,13.1011,0.000000,1.000000,-0.715929,-21.78,
4.037500,10.4842,0.000000,125.938,107.75,30,-0.420601,0.000000,13.3625,0.000000,1.000000,-0.691309,-21.031,
4.116667,10.48,0.000000,127.917,109.59,30,-0.405112,0.000000,13.6082,0.000000,1.000000,-0.668168,-20.327,
4.195833,10.4763,0.000000,129.896,111.42,30,-0.390939,0.000000,13.833,0.000000,1.000000,-0.646999,-19.683,
4.275000,10.4728,0.000000,131.875,113.25,30,-0.377810,0.000000,14.0414,0.000000,1.000000,-0.627375,-19.086,
4.354167,10.47,0.000000,133.854,115.07,30,-0.365650,0.000000,14.2345,0.000000,1.000000,-0.609197,-18.533,
4.433333,10.4674,0.000000,135.833,116.9,30,-0.354556,0.000000,14.4102,0.000000,1.000000,-0.592663,-18.03,
4.512500,10.4652,0.000000,137.812,118.73,30,-0.344533,0.000000,14.5686,0.000000,1.000000,-0.577773,-17.577,
4.591667,10.4632,0.000000,139.792,120.57,30,-0.335636,0.000000,14.7082,0.000000,1.000000,-0.564657,-17.178,
4.670833,10.4615,0.000000,141.771,122.4,30,-0.327820,0.000000,14.8299,0.000000,1.000000,-0.553251,-16.831,
4.750000,10.46,0.000000,143.75,124.24,30,-0.321090,0.000000,14.9332,0.000000,1.000000,-0.543587,-16.537,
4.829167,10.4584,0.000000,145.729,126.08,30,-0.315259,0.000000,15.0213,0.000000,1.000000,-0.535369,-16.287,
4.908333,10.4571,0.000000,147.708,127.93,30,-0.310384,0.000000,15.0932,0.000000,1.000000,-0.528696,-16.084,
4.987500,10.4558,0.000000,149.688,129.78,30,-0.306448,0.000000,15.1489,0.000000,1.000000,-0.523568,-15.928,
5.066667,10.4547,0.000000,151.667,131.63,30,-0.303405,0.000000,15.1892,0.000000,1.000000,-0.519920,-15.817,
5.145833,10.4539,0.000000,153.646,133.5,30,-0.301095,0.000000,15.2167,0.000000,1.000000,-0.517487,-15.743,
5.225000,10.453,0.000000,155.625,135.36,30,-0.299301,0.000000,15.2352,0.000000,1.000000,-0.515910,-15.695,
5.304167,10.4521,0.000000,157.604,137.23,30,-0.297885,0.000000,15.2473,0.000000,1.000000,-0.514956,-15.666,
5.383333,10.4515,0.000000,159.583,139.11,30,-0.296767,0.000000,15.2541,0.000000,1.000000,-0.514496,-15.652,
5.462500,10.4508,0.000000,161.562,140.99,30,-0.296268,0.000000,15.2501,0.000000,1.000000,-0.515088,-15.67,
5.541667,10.4501,0.000000,163.542,142.87,30,-0.296232,0.000000,15.2377,0.000000,1.000000,-0.516468,-15.712,
5.620833,10.4497,0.000000,165.521,144.77,30,-0.296856,0.000000,15.2135,0.000000,1.000000,-0.518999,-15.789,
5.700000,10.4493,0.000000,167.5,146.67,30,-0.297859,0.000000,15.1824,0.000000,1.000000,-0.522188,-15.886,
5.779167,10.4488,0.000000,169.479,148.58,30,-0.299202,0.000000,15.1451,0.000000,1.000000,-0.525968,-16.001,
5.858333,10.4484,0.000000,171.458,150.49,30,-0.300857,0.000000,15.1021,0.000000,1.000000,-0.530307,-16.133,
5.937500,10.4482,0.000000,173.438,152.4,30,-0.302661,0.000000,15.0563,0.000000,1.000000,-0.534909,-16.273,
6.016667,10.4477,0.000000,175.417,154.32,30,-0.304534,0.000000,15.0093,0.000000,1.000000,-0.539642,-16.417,
6.095833,10.4471,0.000000,177.396,156.25,30,-0.306570,0.000000,14.9591,0.000000,1.000000,-0.544672,-16.57,
6.175000,10.4467,0.000000,179.375,158.19,30,-0.308733,0.000000,14.9067,0.000000,1.000000,-0.549931,-16.73,
6.254167,10.4462,0.000000,181.354,160.14,30,-0.310816,0.000000,14.8556,0.000000,1.000000,-0.555059,-16.886,
6.333333,10.4458,0.000000,183.333,162.09,30,-0.312933,0.000000,14.8039,0.000000,1.000000,-0.560252,-17.044,
6.412500,10.4456,0.000000,185.312,164.04,30,-0.315118,0.000000,14.7508,0.000000,1.000000,-0.565578,-17.206,
6.491667,10.4451,0.000000,187.292,166,30,-0.317334,0.000000,14.6971,0.000000,1.000000,-0.570968,-17.37,
6.570833,10.4449,0.000000,189.271,167.96,30,-0.319533,0.000000,14.6438,0.000000,1.000000,-0.576326,-17.533,
6.650000,10.4445,0.000000,191.25,169.92,30,-0.321634,0.000000,14.5921,0.000000,1.000000,-0.581520,-17.691,
6.729167,10.444,0.000000,193.229,171.89,30,-0.323602,0.000000,14.5429,0.000000,1.000000,-0.586483,-17.842,
6.808333,10.4436,0.000000,195.208,173.87,30,-0.325534,0.000000,14.4945,0.000000,1.000000,-0.591381,-17.991,
6.887500,10.4432,0.000000,197.188,175.84,30,-0.327431,0.000000,14.4467,0.000000,1.000000,-0.596213,-18.138,
6.966667,10.4425,0.000000,199.167,177.82,30,-0.329411,0.000000,14.3972,0.000000,1.000000,-0.601210,-18.29,
7.045833,10.4419,0.000000,201.146,179.79,30,-0.331320,0.000000,14.3491,0.000000,1.000000,-0.606075,-18.438,
7.125000,10.4414,0.000000,203.125,181.78,30,-0.333030,0.000000,14.3048,0.000000,1.000000,-0.610578,-18.575,
7.204167,10.441,0.000000,205.104,183.76,30,-0.334400,0.000000,14.2669,0.000000,1.000000,-0.614457,-18.693,
7.283333,10.4405,0.000000,207.083,185.75,30,-0.335538,0.000000,14.2335,0.000000,1.000000,-0.617908,-18.798,
7.362500,10.4401,0.000000,209.062,187.73,30,-0.336501,0.000000,14.2034,0.000000,1.000000,-0.621031,-18.893,
7.441667,10.4397,0.000000,211.042,189.72,30,-0.337396,0.000000,14.1748,0.000000,1.000000,-0.624022,-18.984,
7.520833,10.4392,0.000000,213.021,191.72,30,-0.338257,0.000000,14.1468,0.000000,1.000000,-0.626948,-19.073,
7.600000,10.4386,0.000000,215,193.71,30,-0.339088,0.000000,14.1195,0.000000,1.000000,-0.629807,-19.16,
7.679167,10.4379,0.000000,216.979,195.7,30,-0.339657,0.000000,14.0973,0.000000,1.000000,-0.632174,-19.232,
7.758333,10.4375,0.000000,218.958,197.7,30,-0.340020,0.000000,14.0791,0.000000,1.000000,-0.634146,-19.292,
7.837500,10.4371,0.000000,220.938,199.69,30,-0.340338,0.000000,14.062,0.000000,1.000000,-0.636020,-19.349,
7.916667,10.4364,0.000000,222.917,201.69,30,-0.340571,0.000000,14.0465,0.000000,1.000000,-0.637729,-19.401,
7.995833,10.4355,0.000000,224.896,203.68,30,-0.340722,0.000000,14.0328,0.000000,1.000000,-0.639274,-19.448,
8.075000,10.4347,0.000000,226.875,205.68,30,-0.340775,0.000000,14.021,0.000000,1.000000,-0.640622,-19.489,
8.154167,10.4338,0.000000,228.854,207.68,30,-0.340714,0.000000,14.0116,0.000000,1.000000,-0.641740,-19.523,
8.233333,10.4327,0.000000,230.833,209.67,30,-0.340696,0.000000,14.0016,0.000000,1.000000,-0.642923,-19.559,
8.312500,10.4318,0.000000,232.812,211.67,30,-0.340682,0.000000,13.9915,0.000000,1.000000,-0.644106,-19.595,
8.391667,10.4307,0.000000,234.792,213.66,30,-0.340694,0.000000,13.9811,0.000000,1.000000,-0.645322,-19.632,
8.470833,10.4296,0.000000,236.771,215.66,30,-0.340816,0.000000,13.9686,0.000000,1.000000,-0.646736,-19.675,
8.550000,10.4285,0.000000,238.75,217.65,30,-0.340928,0.000000,13.9565,0.000000,1.000000,-0.648116,-19.717,
8.629167,10.4272,0.000000,240.729,219.65,30,-0.340976,0.000000,13.9457,0.000000,1.000000,-0.649366,-19.755,
8.708333,10.4259,0.000000,242.708,221.65,30,-0.341047,0.000000,13.9345,0.000000,1.000000,-0.650648,-19.794,
8.787500,10.4244,0.000000,244.688,223.64,30,-0.341160,0.000000,13.9227,0.000000,1.000000,-0.651995,-19.835,
8.866667,10.4231,0.000000,246.667,225.63,30,-0.341434,0.000000,13.9078,0.000000,1.000000,-0.653639,-19.885,
8.945833,10.4213,0.000000,248.646,227.62,30,-0.341918,0.000000,13.8889,0.000000,1.000000,-0.655677,-19.947,
9.025000,10.4198,0.000000,250.625,229.62,30,-0.342594,0.000000,13.8662,0.000000,1.000000,-0.658076,-20.02,
9.104167,10.4179,0.000000,252.604,231.61,30,-0.343394,0.000000,13.8412,0.000000,1.000000,-0.660706,-20.1,
9.183333,10.4159,0.000000,254.583,233.6,30,-0.344265,0.000000,13.8148,0.000000,1.000000,-0.663467,-20.184,
9.262500,10.4137,0.000000,256.562,235.59,30,-0.345091,0.000000,13.7895,0.000000,1.000000,-0.666130,-20.265,
9.341667,10.4113,0.000000,258.542,237.58,30,-0.345917,0.000000,13.7641,0.000000,1.000000,-0.668792,-20.346,
9.420833,10.4087,0.000000,260.521,239.57,30,-0.346527,0.000000,13.7431,0.000000,1.000000,-0.671028,-20.414,
9.500000,10.4059,0.000000,262.5,241.56,30,-0.346920,0.000000,13.7265,0.000000,1.000000,-0.672835,-20.469,
9.579167,10.4032,0.000000,264.479,243.54,30,-0.347030,0.000000,13.7156,0.000000,1.000000,-0.674085,-20.507,
9.658333,10.4006,0.000000,266.458,245.53,30,-0.346807,0.000000,13.7114,0.000000,1.000000,-0.674676,-20.525,
9.737500,10.3978,0.000000,268.438,247.52,30,-0.346303,0.000000,13.7129,0.000000,1.000000,-0.674709,-20.526,
9.816667,10.3952,0.000000,270.417,249.5,30,-0.345486,0.000000,13.7208,0.000000,1.000000,-0.674117,-20.508,
9.895833,10.3925,0.000000,272.396,251.49,30,-0.344340,0.000000,13.7354,0.000000,1.000000,-0.672868,-20.47,
9.975000,10.3897,0.000000,274.375,253.47,30,-0.343002,0.000000,13.754,0.000000,1.000000,-0.671225,-20.42,
10.0542,10.3869,0.000000,276.354,255.46,30,-0.341538,0.000000,13.7752,0.000000,1.000000,-0.669318,-20.362,
10.1333,10.3838,0.000000,278.333,257.44,30,-0.340017,0.000000,13.7978,0.000000,1.000000,-0.667280,-20.3,
10.2125,10.3808,0.000000,280.312,259.42,30,-0.338421,0.000000,13.822,0.000000,1.000000,-0.665078,-20.233,
10.2917,10.3775,0.000000,282.292,261.4,30,-0.336716,0.000000,13.8485,0.000000,1.000000,-0.662645,-20.159,
10.3708,10.3738,0.000000,284.271,263.38,30,-0.334989,0.000000,13.8756,0.000000,1.000000,-0.660147,-20.083,
10.45,10.3701,0.000000,286.25,265.36,30,-0.333170,0.000000,13.9048,0.000000,1.000000,-0.657452,-20.001,
10.5292,10.3659,0.000000,288.229,267.34,30,-0.331378,0.000000,13.9336,0.000000,1.000000,-0.654789,-19.92,
10.6083,10.3618,0.000000,290.208,269.32,30,-0.329677,0.000000,13.9606,0.000000,1.000000,-0.652291,-19.844,
10.6875,10.3572,0.000000,292.188,271.3,30,-0.328102,0.000000,13.9853,0.000000,1.000000,-0.650023,-19.775,
10.7667,10.3524,0.000000,294.167,273.28,30,-0.326485,0.000000,14.011,0.000000,1.000000,-0.647656,-19.703,
10.8458,10.3472,0.000000,296.146,275.26,30,-0.324992,0.000000,14.0343,0.000000,1.000000,-0.645520,-19.638,
10.925,10.3415,0.000000,298.125,277.24,30,-0.323491,0.000000,14.0579,0.000000,1.000000,-0.643350,-19.572,
11.0042,10.3352,0.000000,300.104,279.21,30,-0.322096,0.000000,14.0795,0.000000,1.000000,-0.641378,-19.512,
11.0833,10.328,0.000000,302.083,281.19,30,-0.320775,0.000000,14.0997,0.000000,1.000000,-0.639537,-19.456,
11.1625,10.3194,0.000000,304.062,283.17,30,-0.319790,0.000000,14.1132,0.000000,1.000000,-0.638354,-19.42,
11.2417,10.3114,0.000000,306.042,285.14,30,-0.318976,0.000000,14.1233,0.000000,1.000000,-0.637499,-19.394,
11.3208,10.3024,0.000000,308.021,287.12,30,-0.318478,0.000000,14.127,0.000000,1.000000,-0.637269,-19.387,
11.4,10.2924,0.000000,310,289.1,30,-0.318201,0.000000,14.1263,0.000000,1.000000,-0.637466,-19.393,
11.4792,10.2817,0.000000,311.979,291.08,30,-0.318384,0.000000,14.1163,0.000000,1.000000,-0.638584,-19.427,
11.5583,10.2695,0.000000,313.958,293.05,30,-0.319046,0.000000,14.0966,0.000000,1.000000,-0.640655,-19.49,
11.6375,10.2555,0.000000,315.938,295.02,30,-0.320233,0.000000,14.0661,0.000000,1.000000,-0.643778,-19.585,
11.7167,10.2402,0.000000,317.917,297,30,-0.322188,0.000000,14.02,0.000000,1.000000,-0.648445,-19.727,
11.7958,10.2237,0.000000,319.896,298.98,30,-0.324926,0.000000,13.9577,0.000000,1.000000,-0.654691,-19.917,
11.875,10.2053,0.000000,321.875,300.96,30,-0.328230,0.000000,13.8838,0.000000,1.000000,-0.662087,-20.142,
11.9542,10.1844,0.000000,323.854,302.93,30,-0.332231,0.000000,13.7956,0.000000,1.000000,-0.670896,-20.41,
12.0333,10.1608,0.000000,325.833,304.91,30,-0.337152,0.000000,13.6883,0.000000,1.000000,-0.681579,-20.735,
12.1125,10.1348,0.000000,327.812,306.89,30,-0.344179,0.000000,13.5376,0.000000,1.000000,-0.696535,-21.19,
12.1917,10.1065,0.000000,329.792,308.87,30,-0.352572,0.000000,13.3586,0.000000,1.000000,-0.714286,-21.73,
12.2708,10.0742,0.000000,331.771,310.85,30,-0.362621,0.000000,13.1452,0.000000,1.000000,-0.735422,-22.373,
12.35,10.0371,0.000000,333.75,312.83,30,-0.375825,0.000000,12.8664,0.000000,1.000000,-0.763000,-23.212,
12.4292,9.995852,0.000000,335.729,314.81,30,-0.392513,0.000000,12.5153,0.000000,1.000000,-0.797712,-24.268,
12.5083,9.948502,0.000000,337.708,316.8,30,-0.414293,0.000000,12.0585,0.000000,1.000000,-0.842844,-25.641,
12.5875,9.893951,0.000000,339.688,318.78,30,-0.440650,0.000000,11.5064,0.000000,1.000000,-0.897377,-27.3,
12.6667,9.830673,0.000000,341.667,320.77,30,-0.473213,0.000000,10.825,0.000000,1.000000,-0.964664,-29.347,
12.7458,9.756920,0.000000,343.646,322.76,30,-0.513897,0.000000,9.974420,0.000000,1.000000,-1.048649,-31.902,
12.825,9.672476,0.000000,345.625,324.75,30,-0.561039,0.000000,8.988652,0.000000,1.000000,-1.145980,-34.863,
12.9042,9.574503,0.000000,347.604,326.75,30,-0.617803,0.000000,7.801778,0.000000,1.000000,-1.263165,-38.428,
12.9833,9.460383,0.000000,349.583,328.75,30,-0.681382,0.000000,6.471555,0.000000,1.000000,-1.394517,-42.424,
13.0625,9.329243,0.000000,351.562,330.75,30,-0.755387,0.000000,4.922705,0.000000,1.000000,-1.547466,-47.077,
13.1417,9.179120,0.000000,353.542,332.76,30,-0.838234,0.000000,3.187660,0.000000,1.000000,-1.718822,-52.29,
13.2208,9.008050,0.000000,355.521,334.78,30,-0.931225,0.000000,1.238836,0.000000,1.000000,-1.911314,-58.146,
13.3,8.813631,0.000000,357.5,336.81,30,-1.031901,0.000000,-0.873036,0.000000,1.000000,-2.119946,-64.493,
13.3792,8.594120,0.000000,359.479,338.84,30,-1.141971,0.000000,-3.183894,0.000000,1.000000,-2.348268,-71.439,
13.4583,8.347114,0.000000,361.458,340.88,30,-1.260128,0.000000,-5.667002,0.000000,1.000000,-2.593649,-78.904,
13.5375,8.071088,0.000000,363.438,342.93,30,-1.384921,0.000000,-8.292329,0.000000,1.000000,-2.853133,-86.798,
13.6167,7.764078,0.000000,365.417,344.98,30,-1.514592,0.000000,-11.0236,0.000000,1.000000,-3.123135,-95.012,
13.6958,7.425209,0.000000,367.396,347.04,30,-1.646485,0.000000,-13.8054,0.000000,1.000000,-3.398199,-103.38,
13.775,7.054265,0.000000,369.375,349.11,30,-1.778126,0.000000,-16.5862,0.000000,1.000000,-3.673230,-111.747,
13.8542,6.652118,0.000000,371.354,351.19,30,-1.905825,0.000000,-19.2887,0.000000,1.000000,-3.940602,-119.881,
13.9333,6.221169,0.000000,373.333,353.27,30,-2.024011,0.000000,-21.796,0.000000,1.000000,-4.188745,-127.43,
14.0125,5.767089,0.000000,375.312,355.36,30,-2.127212,0.000000,-23.9929,0.000000,1.000000,-4.406285,-134.048,
14.0917,5.298827,0.000000,377.292,357.45,30,-2.209802,0.000000,-25.7609,0.000000,1.000000,-4.581487,-139.378,
14.1708,4.830128,0.000000,379.271,359.54,30,-2.266121,0.000000,-26.9795,0.000000,1.000000,-4.702452,-143.058,
14.25,4.366012,0.000000,381.25,361.62,30,-2.289532,0.000000,-27.5085,0.000000,1.000000,-4.755276,-144.665,
14.3292,3.907132,0.000000,383.229,363.69,30,-2.274052,0.000000,-27.2202,0.000000,1.000000,-4.727335,-143.815,
14.4083,3.475528,0.000000,385.208,365.75,30,-2.217945,0.000000,-26.0761,0.000000,1.000000,-4.614785,-140.391,
14.4875,3.085164,0.000000,387.188,367.8,30,-2.121262,0.000000,-24.0755,0.000000,1.000000,-4.417527,-134.39,
14.5667,2.744550,0.000000,389.167,369.83,30,-1.987817,0.000000,-21.2963,0.000000,1.000000,-4.143252,-126.046,
14.6458,2.459141,0.000000,391.146,371.83,30,-1.822475,0.000000,-17.8397,0.000000,1.000000,-3.801920,-115.662,
14.725,2.230028,0.000000,393.125,373.82,30,-1.629675,0.000000,-13.7977,0.000000,1.000000,-3.402636,-103.515,
14.8042,2.055903,0.000000,395.104,375.78,30,-1.420412,0.000000,-9.401318,0.000000,1.000000,-2.968214,-90.299,
14.8833,1.931091,0.000000,397.083,377.72,30,-1.205448,0.000000,-4.877515,0.000000,1.000000,-2.521103,-76.697,
14.9625,1.847301,0.000000,399.062,379.65,30,-0.994357,0.000000,-0.428694,0.000000,1.000000,-2.081323,-63.318,
15.0417,1.792969,0.000000,401.042,381.54,30,-0.803317,0.000000,3.602217,0.000000,1.000000,-1.682795,-51.194,
15.1208,1.756093,0.000000,403.021,383.43,30,-0.642698,0.000000,6.994412,0.000000,1.000000,-1.347380,-40.99,
15.2,1.726199,0.000000,405,385.3,30,-0.511413,0.000000,9.769325,0.000000,1.000000,-1.072974,-32.642,
15.2792,1.702852,0.000000,406.979,387.18,30,-0.410111,0.000000,11.9118,0.000000,1.000000,-0.861087,-26.196,
15.3583,1.682559,0.000000,408.958,389.05,30,-0.330366,0.000000,13.5995,0.000000,1.000000,-0.694169,-21.118,
15.4375,1.664448,0.000000,410.938,390.92,30,-0.270063,0.000000,14.8764,0.000000,1.000000,-0.567879,-17.276,
15.5167,1.647864,0.000000,412.917,392.8,30,-0.223502,0.000000,15.8627,0.000000,1.000000,-0.470318,-14.308,
15.5958,1.632809,0.000000,414.896,394.68,30,-0.187078,0.000000,16.6346,0.000000,1.000000,-0.393958,-11.985,
15.675,1.618625,0.000000,416.875,396.57,30,-0.162267,0.000000,17.1603,0.000000,1.000000,-0.341956,-10.403,
15.7542,1.605097,0.000000,418.854,398.46,30,-0.142620,0.000000,17.5767,0.000000,1.000000,-0.300769,-9.150000,
15.8333,1.592659,0.000000,420.833,400.35,30,-0.127611,0.000000,17.8947,0.000000,1.000000,-0.269312,-8.193000,
15.9125,1.580876,0.000000,422.812,402.25,30,-0.116018,0.000000,18.1402,0.000000,1.000000,-0.245020,-7.454000,
15.9917,1.569530,0.000000,424.792,404.15,30,-0.106712,0.000000,18.3373,0.000000,1.000000,-0.225528,-6.861000,
16.0708,1.558620,0.000000,426.771,406.06,30,-0.099736,0.000000,18.4848,0.000000,1.000000,-0.210933,-6.417000,
16.15,1.547928,0.000000,428.75,407.97,30,-0.094089,0.000000,18.6041,0.000000,1.000000,-0.199132,-6.058000,
16.2292,1.537890,0.000000,430.729,409.88,30,-0.089910,0.000000,18.6922,0.000000,1.000000,-0.190421,-5.793000,
16.3083,1.528508,0.000000,432.708,411.8,30,-0.086745,0.000000,18.7587,0.000000,1.000000,-0.183847,-5.593000,
16.3875,1.519343,0.000000,434.688,413.72,30,-0.084376,0.000000,18.8082,0.000000,1.000000,-0.178949,-5.444000,
16.4667,1.511052,0.000000,436.667,415.65,30,-0.083480,0.000000,18.8262,0.000000,1.000000,-0.177174,-5.390000,
16.5458,1.502542,0.000000,438.646,417.58,30,-0.082834,0.000000,18.8389,0.000000,1.000000,-0.175925,-5.352000,
16.625,1.493814,0.000000,440.625,419.51,30,-0.082236,0.000000,18.8506,0.000000,1.000000,-0.174775,-5.317000,
16.7042,1.483994,0.000000,442.604,421.45,30,-0.081730,0.000000,18.8603,0.000000,1.000000,-0.173822,-5.288000,
16.7833,1.475921,0.000000,444.583,423.39,30,-0.081273,0.000000,18.8689,0.000000,1.000000,-0.172967,-5.262000,
16.8625,1.468066,0.000000,446.562,425.33,30,-0.080924,0.000000,18.8753,0.000000,1.000000,-0.172342,-5.243000,
16.9417,1.461301,0.000000,448.542,427.28,30,-0.080806,0.000000,18.8767,0.000000,1.000000,-0.172211,-5.239000,
17.0208,1.454537,0.000000,450.521,429.23,30,-0.080982,0.000000,18.8717,0.000000,1.000000,-0.172704,-5.254000,
17.1,1.448864,0.000000,452.5,431.18,30,-0.081513,0.000000,18.8591,0.000000,1.000000,-0.173953,-5.292000,
17.1792,1.442536,0.000000,454.479,433.13,30,-0.082350,0.000000,18.8399,0.000000,1.000000,-0.175860,-5.350000,
17.2583,1.435772,0.000000,456.458,435.09,30,-0.083294,0.000000,18.8183,0.000000,1.000000,-0.177996,-5.415000,
17.3375,1.429007,0.000000,458.438,437.05,30,-0.084529,0.000000,18.7905,0.000000,1.000000,-0.180757,-5.499000,
17.4167,1.421589,0.000000,460.417,439.01,30,-0.085916,0.000000,18.7593,0.000000,1.000000,-0.183847,-5.593000,
17.4958,1.414824,0.000000,462.396,440.98,30,-0.087378,0.000000,18.7264,0.000000,1.000000,-0.187101,-5.692000,
17.575,1.408715,0.000000,464.375,442.95,30,-0.088885,0.000000,18.6926,0.000000,1.000000,-0.190454,-5.794000,
17.6542,1.403696,0.000000,466.354,444.92,30,-0.090420,0.000000,18.658,0.000000,1.000000,-0.193873,-5.898000,
17.7333,1.397805,0.000000,468.333,446.89,30,-0.091386,0.000000,18.6358,0.000000,1.000000,-0.196075,-5.965000,
17.8125,1.391695,0.000000,470.312,448.86,30,-0.093254,0.000000,18.5939,0.000000,1.000000,-0.200217,-6.091000,
17.8917,1.385367,0.000000,472.292,450.84,30,-0.090194,0.000000,18.659,0.000000,1.000000,-0.193774,-5.895000,
17.9708,1.379912,0.000000,474.271,452.81,30,-0.088789,0.000000,18.6882,0.000000,1.000000,-0.190882,-5.807000,
18.05,1.374457,0.000000,476.25,454.79,30,-0.089861,0.000000,18.6636,0.000000,1.000000,-0.193314,-5.881000,
18.1292,1.368784,0.000000,478.229,456.77,30,-0.090810,0.000000,18.6416,0.000000,1.000000,-0.195484,-5.947000,
18.2083,1.363329,0.000000,480.208,458.75,30,-0.092581,0.000000,18.6017,0.000000,1.000000,-0.199428,-6.067000,
18.2875,1.357874,0.000000,482.188,460.72,30,-0.094641,0.000000,18.5555,0.000000,1.000000,-0.203997,-6.206000,
18.3667,1.352637,0.000000,484.167,462.71,30,-0.096926,0.000000,18.5043,0.000000,1.000000,-0.209059,-6.360000,
18.4458,1.347618,0.000000,486.146,464.69,30,-0.099239,0.000000,18.4525,0.000000,1.000000,-0.214187,-6.516000,
18.525,1.342599,0.000000,488.125,466.67,30,-0.101518,0.000000,18.4013,0.000000,1.000000,-0.219249,-6.670000,
18.6042,1.337799,0.000000,490.104,468.65,30,-0.103947,0.000000,18.3468,0.000000,1.000000,-0.224640,-6.834000,
18.6833,1.332998,0.000000,492.083,470.64,30,-0.106449,0.000000,18.2906,0.000000,1.000000,-0.230195,-7.003000,
18.7625,1.328416,0.000000,494.062,472.62,30,-0.109054,0.000000,18.232,0.000000,1.000000,-0.235981,-7.179000,
18.8417,1.324052,0.000000,496.042,474.61,30,-0.111717,0.000000,18.1721,0.000000,1.000000,-0.241897,-7.359000,
18.9208,1.319470,0.000000,498.021,476.59,30,-0.114527,0.000000,18.1089,0.000000,1.000000,-0.248143,-7.549000,
19,1.314669,0.000000,500,478.58,30,-0.117365,0.000000,18.045,0.000000,1.000000,-0.254454,-7.741000,
19.0792,1.310305,0.000000,501.979,480.57,30,-0.120230,0.000000,17.9805,0.000000,1.000000,-0.260831,-7.935000,
19.1583,1.305723,0.000000,503.958,482.55,30,-0.123015,0.000000,17.9175,0.000000,1.000000,-0.267044,-8.124000,
19.2375,1.301141,0.000000,505.938,484.54,30,-0.125873,0.000000,17.8529,0.000000,1.000000,-0.273421,-8.318000,
19.3167,1.296340,0.000000,507.917,486.53,30,-0.128817,0.000000,17.7863,0.000000,1.000000,-0.279995,-8.518000,
19.3958,1.292195,0.000000,509.896,488.52,30,-0.131758,0.000000,17.7197,0.000000,1.000000,-0.286569,-8.718000,
19.475,1.288267,0.000000,511.875,490.5,30,-0.134787,0.000000,17.6511,0.000000,1.000000,-0.293340,-8.924000,
19.5542,1.284121,0.000000,513.854,492.49,30,-0.137630,0.000000,17.5864,0.000000,1.000000,-0.299717,-9.118000,
19.6333,1.280193,0.000000,515.833,494.48,30,-0.140545,0.000000,17.5201,0.000000,1.000000,-0.306259,-9.317000,
19.7125,1.276266,0.000000,517.812,496.46,30,-0.143502,0.000000,17.4527,0.000000,1.000000,-0.312899,-9.519000,
19.7917,1.272338,0.000000,519.792,498.45,30,-0.146440,0.000000,17.3856,0.000000,1.000000,-0.319506,-9.720000,
19.8708,1.268629,0.000000,521.771,500.43,30,-0.149269,0.000000,17.3209,0.000000,1.000000,-0.325883,-9.914000,
19.95,1.264919,0.000000,523.75,502.42,30,-0.152004,0.000000,17.2581,0.000000,1.000000,-0.332062,-10.102,
20.0292,1.261428,0.000000,525.729,504.41,30,-0.154752,0.000000,17.195,0.000000,1.000000,-0.338275,-10.291,
20.1083,1.257937,0.000000,527.708,506.39,30,-0.157496,0.000000,17.1318,0.000000,1.000000,-0.344488,-10.48,
20.1875,1.254446,0.000000,529.688,508.38,30,-0.160296,0.000000,17.0673,0.000000,1.000000,-0.350832,-10.673,
20.2667,1.250954,0.000000,531.667,510.36,30,-0.163183,0.000000,17.0008,0.000000,1.000000,-0.357373,-10.872,
20.3458,1.247463,0.000000,533.646,512.35,30,-0.166097,0.000000,16.9336,0.000000,1.000000,-0.363980,-11.073,
20.425,1.243754,0.000000,535.625,514.34,30,-0.169142,0.000000,16.8634,0.000000,1.000000,-0.370883,-11.283,
20.5042,1.240262,0.000000,537.604,516.32,30,-0.172348,0.000000,16.7895,0.000000,1.000000,-0.378147,-11.504,
20.5833,1.237208,0.000000,539.583,518.3,30,-0.175670,0.000000,16.7129,0.000000,1.000000,-0.385675,-11.733,
20.6625,1.233935,0.000000,541.562,520.29,30,-0.179063,0.000000,16.6346,0.000000,1.000000,-0.393367,-11.967,
20.7417,1.230662,0.000000,543.542,522.27,30,-0.182676,0.000000,16.5513,0.000000,1.000000,-0.401552,-12.216,
20.8208,1.227607,0.000000,545.521,524.26,30,-0.186344,0.000000,16.4666,0.000000,1.000000,-0.409868,-12.469,
20.9,1.224552,0.000000,547.5,526.25,30,-0.189978,0.000000,16.3825,0.000000,1.000000,-0.418118,-12.72,
20.9792,1.221497,0.000000,549.479,528.23,30,-0.193667,0.000000,16.2971,0.000000,1.000000,-0.426501,-12.975,
21.0583,1.218660,0.000000,551.458,530.21,30,-0.197590,0.000000,16.2064,0.000000,1.000000,-0.435409,-13.246,
21.1375,1.215824,0.000000,553.438,532.2,30,-0.201673,0.000000,16.1119,0.000000,1.000000,-0.444678,-13.528,
21.2167,1.212987,0.000000,555.417,534.18,30,-0.205706,0.000000,16.0184,0.000000,1.000000,-0.453849,-13.807,
21.2958,1.210150,0.000000,557.396,536.16,30,-0.209688,0.000000,15.9259,0.000000,1.000000,-0.462922,-14.083,
21.375,1.207314,0.000000,559.375,538.15,30,-0.213682,0.000000,15.8329,0.000000,1.000000,-0.472027,-14.36,
21.4542,1.204259,0.000000,561.354,540.13,30,-0.217640,0.000000,15.7406,0.000000,1.000000,-0.481066,-14.635,
21.5333,1.201422,0.000000,563.333,542.11,30,-0.221683,0.000000,15.6463,0.000000,1.000000,-0.490303,-14.916,
21.6125,1.198586,0.000000,565.312,544.1,30,-0.225721,0.000000,15.5519,0.000000,1.000000,-0.499540,-15.197,
21.6917,1.195967,0.000000,567.292,546.08,30,-0.229961,0.000000,15.4528,0.000000,1.000000,-0.509237,-15.492,
21.7708,1.193131,0.000000,569.271,548.06,30,-0.234315,0.000000,15.351,0.000000,1.000000,-0.519197,-15.795,
21.85,1.190512,0.000000,571.25,550.05,30,-0.238738,0.000000,15.2475,0.000000,1.000000,-0.529321,-16.103,
21.9292,1.187676,0.000000,573.229,552.03,30,-0.243333,0.000000,15.1399,0.000000,1.000000,-0.539840,-16.423,
22.0083,1.185057,0.000000,575.208,554.01,30,-0.248100,0.000000,15.0283,0.000000,1.000000,-0.550753,-16.755,
22.0875,1.182221,0.000000,577.188,556,30,-0.253054,0.000000,14.9123,0.000000,1.000000,-0.562093,-17.1,
22.1667,1.179602,0.000000,579.167,557.98,30,-0.258001,0.000000,14.7962,0.000000,1.000000,-0.573434,-17.445,
22.2458,1.176766,0.000000,581.146,559.96,30,-0.263120,0.000000,14.6761,0.000000,1.000000,-0.585169,-17.802,
22.325,1.174147,0.000000,583.125,561.94,30,-0.268440,0.000000,14.5512,0.000000,1.000000,-0.597364,-18.173,
22.4042,1.171529,0.000000,585.104,563.93,30,-0.274017,0.000000,14.4203,0.000000,1.000000,-0.610151,-18.562,
22.4833,1.168910,0.000000,587.083,565.91,30,-0.279692,0.000000,14.287,0.000000,1.000000,-0.623167,-18.958,
22.5625,1.166510,0.000000,589.062,567.89,30,-0.285552,0.000000,14.1492,0.000000,1.000000,-0.636612,-19.367,
22.6417,1.164110,0.000000,591.042,569.87,30,-0.291610,0.000000,14.0067,0.000000,1.000000,-0.650516,-19.79,
22.7208,1.161928,0.000000,593.021,571.86,30,-0.297601,0.000000,13.8655,0.000000,1.000000,-0.664289,-20.209,
22.8,1.159309,0.000000,595,573.84,30,-0.303645,0.000000,13.7228,0.000000,1.000000,-0.678193,-20.632,
22.8792,1.157127,0.000000,596.979,575.82,30,-0.309871,0.000000,13.5758,0.000000,1.000000,-0.692525,-21.068,
22.9583,1.154727,0.000000,598.958,577.81,30,-0.316473,0.000000,13.4199,0.000000,1.000000,-0.707712,-21.53,
23.0375,1.152327,0.000000,600.938,579.79,30,-0.323375,0.000000,13.257,0.000000,1.000000,-0.723588,-22.013,
23.1167,1.149927,0.000000,602.917,581.77,30,-0.330473,0.000000,13.0893,0.000000,1.000000,-0.739925,-22.51,
23.1958,1.147745,0.000000,604.896,583.75,30,-0.337636,0.000000,12.9198,0.000000,1.000000,-0.756426,-23.012,
23.275,1.145344,0.000000,606.875,585.74,30,-0.344717,0.000000,12.7519,0.000000,1.000000,-0.772763,-23.509,
23.3542,1.142944,0.000000,608.854,587.72,30,-0.351525,0.000000,12.5899,0.000000,1.000000,-0.788508,-23.988,
23.4333,1.140544,0.000000,610.833,589.7,30,-0.357928,0.000000,12.4369,0.000000,1.000000,-0.803366,-24.44,
23.5125,1.138362,0.000000,612.812,591.69,30,-0.364076,0.000000,12.2894,0.000000,1.000000,-0.817665,-24.875,
23.5917,1.136180,0.000000,614.792,593.67,30,-0.369937,0.000000,12.1482,0.000000,1.000000,-0.831339,-25.291,
23.6708,1.133998,0.000000,616.771,595.65,30,-0.375528,0.000000,12.013,0.000000,1.000000,-0.844422,-25.689,
23.75,1.131816,0.000000,618.75,597.63,30,-0.381141,0.000000,11.877,0.000000,1.000000,-0.857570,-26.089,
23.8292,1.129634,0.000000,620.729,599.61,30,-0.386966,0.000000,11.7359,0.000000,1.000000,-0.871212,-26.504,
23.9083,1.127452,0.000000,622.708,601.6,30,-0.393017,0.000000,11.5893,0.000000,1.000000,-0.885379,-26.935,
23.9875,1.125270,0.000000,624.688,603.58,30,-0.399367,0.000000,11.4356,0.000000,1.000000,-0.900237,-27.387,
24.0667,1.123088,0.000000,626.667,605.56,30,-0.406028,0.000000,11.2744,0.000000,1.000000,-0.915818,-27.861,
24.1458,1.120906,0.000000,628.646,607.55,30,-0.412944,0.000000,11.107,0.000000,1.000000,-0.931990,-28.353,
24.225,1.118724,0.000000,630.625,609.53,30,-0.420316,0.000000,10.9288,0.000000,1.000000,-0.949214,-28.877,
24.3042,1.116323,0.000000,632.604,611.51,30,-0.427957,0.000000,10.7441,0.000000,1.000000,-0.967063,-29.42,
24.3833,1.113923,0.000000,634.583,613.5,30,-0.435891,0.000000,10.5523,0.000000,1.000000,-0.985603,-29.984,
24.4625,1.111741,0.000000,636.562,615.48,30,-0.443991,0.000000,10.3563,0.000000,1.000000,-1.004536,-30.56,
24.5417,1.109559,0.000000,638.542,617.46,30,-0.452385,0.000000,10.153,0.000000,1.000000,-1.024160,-31.157,
24.6208,1.107377,0.000000,640.521,619.44,30,-0.460914,0.000000,9.946327,0.000000,1.000000,-1.044113,-31.764,
24.7,1.105413,0.000000,642.5,621.43,30,-0.469736,0.000000,9.732397,0.000000,1.000000,-1.064756,-32.392,
24.7792,1.103450,0.000000,644.479,623.42,30,-0.478764,0.000000,9.513273,0.000000,1.000000,-1.085892,-33.035,
24.8583,1.101486,0.000000,646.458,625.4,30,-0.488085,0.000000,9.286946,0.000000,1.000000,-1.107718,-33.699,
24.9375,1.099522,0.000000,648.438,627.38,30,-0.497523,0.000000,9.057430,0.000000,1.000000,-1.129840,-34.372,
25.0167,1.097340,0.000000,650.417,629.37,30,-0.506936,0.000000,8.828064,0.000000,1.000000,-1.151930,-35.044,
25.0958,1.095376,0.000000,652.396,631.35,30,-0.516466,0.000000,8.595517,0.000000,1.000000,-1.174315,-35.725,
25.175,1.093412,0.000000,654.375,633.34,30,-0.526144,0.000000,8.359076,0.000000,1.000000,-1.197061,-36.417,
25.2542,1.091448,0.000000,656.354,635.33,30,-0.535995,0.000000,8.118078,0.000000,1.000000,-1.220235,-37.122,
25.3333,1.089485,0.000000,658.333,637.31,30,-0.545821,0.000000,7.877251,0.000000,1.000000,-1.243377,-37.826,
25.4125,1.087739,0.000000,660.312,639.3,30,-0.555519,0.000000,7.638912,0.000000,1.000000,-1.266255,-38.522,
25.4917,1.085775,0.000000,662.292,641.28,30,-0.565176,0.000000,7.401080,0.000000,1.000000,-1.289067,-39.216,
25.5708,1.084030,0.000000,664.271,643.27,30,-0.574761,0.000000,7.164385,0.000000,1.000000,-1.311748,-39.906,
25.65,1.082284,0.000000,666.25,645.25,30,-0.584292,0.000000,6.928532,0.000000,1.000000,-1.334330,-40.593,
25.7292,1.080756,0.000000,668.229,647.24,30,-0.593580,0.000000,6.697859,0.000000,1.000000,-1.356387,-41.264,
25.8083,1.079229,0.000000,670.208,649.23,30,-0.602840,0.000000,6.467331,0.000000,1.000000,-1.378410,-41.934,
25.8875,1.077702,0.000000,672.188,651.22,30,-0.611989,0.000000,6.238970,0.000000,1.000000,-1.400204,-42.597,
25.9667,1.075956,0.000000,674.167,653.2,30,-0.620968,0.000000,6.014150,0.000000,1.000000,-1.421636,-43.249,
26.0458,1.074210,0.000000,676.146,655.19,30,-0.629734,0.000000,5.793838,0.000000,1.000000,-1.442607,-43.887,
26.125,1.072465,0.000000,678.125,657.17,30,-0.638389,0.000000,5.575720,0.000000,1.000000,-1.463349,-44.518,
26.2042,1.070719,0.000000,680.104,659.16,30,-0.646875,0.000000,5.361098,0.000000,1.000000,-1.483729,-45.138,
26.2833,1.069192,0.000000,682.083,661.15,30,-0.655234,0.000000,5.148984,0.000000,1.000000,-1.503846,-45.75,
26.3625,1.067664,0.000000,684.062,663.13,30,-0.663569,0.000000,4.937039,0.000000,1.000000,-1.523930,-46.361,
26.4417,1.066137,0.000000,686.042,665.12,30,-0.671864,0.000000,4.725543,0.000000,1.000000,-1.543948,-46.97,
26.5208,1.064609,0.000000,688.021,667.1,30,-0.680090,0.000000,4.515229,0.000000,1.000000,-1.563835,-47.575,
26.6,1.063082,0.000000,690,669.09,30,-0.688264,0.000000,4.305700,0.000000,1.000000,-1.583624,-48.177,
26.6792,1.061555,0.000000,691.979,671.08,30,-0.696340,0.000000,4.097998,0.000000,1.000000,-1.603215,-48.773,
26.7583,1.060027,0.000000,693.958,673.06,30,-0.704306,0.000000,3.892494,0.000000,1.000000,-1.622576,-49.362,
26.8375,1.058500,0.000000,695.938,675.04,30,-0.712333,0.000000,3.685090,0.000000,1.000000,-1.642101,-49.956,
26.9167,1.057191,0.000000,697.917,677.03,30,-0.720391,0.000000,3.476429,0.000000,1.000000,-1.661725,-50.553,
26.9958,1.055663,0.000000,699.896,679.02,30,-0.728469,0.000000,3.266876,0.000000,1.000000,-1.681415,-51.152,
27.075,1.054136,0.000000,701.875,681,30,-0.736564,0.000000,3.056463,0.000000,1.000000,-1.701170,-51.753,
27.1542,1.052608,0.000000,703.854,682.99,30,-0.744733,0.000000,2.843762,0.000000,1.000000,-1.721123,-52.36,
27.2333,1.051299,0.000000,705.833,684.97,30,-0.752962,0.000000,2.629176,0.000000,1.000000,-1.741240,-52.972,
27.3125,1.049990,0.000000,707.812,686.96,30,-0.761068,0.000000,2.417046,0.000000,1.000000,-1.761094,-53.576,
27.3917,1.048463,0.000000,709.792,688.94,30,-0.769062,0.000000,2.207105,0.000000,1.000000,-1.780718,-54.173,
27.4708,1.047153,0.000000,711.771,690.93,30,-0.776988,0.000000,1.998260,0.000000,1.000000,-1.800210,-54.766,
27.55,1.045844,0.000000,713.75,692.91,30,-0.784991,0.000000,1.787184,0.000000,1.000000,-1.819900,-55.365,
27.6292,1.044317,0.000000,715.729,694.9,30,-0.792927,0.000000,1.577198,0.000000,1.000000,-1.839458,-55.96,
27.7083,1.043007,0.000000,717.708,696.88,30,-0.800934,0.000000,1.364976,0.000000,1.000000,-1.859214,-56.561,
27.7875,1.041698,0.000000,719.688,698.87,30,-0.809498,0.000000,1.138856,0.000000,1.000000,-1.880284,-57.202,
27.8667,1.040389,0.000000,721.667,700.85,30,-0.817867,0.000000,0.916954,0.000000,1.000000,-1.900927,-57.83,
27.9458,1.039080,0.000000,723.646,702.84,30,-0.831552,0.000000,0.566288,0.000000,1.000000,-1.933962,-58.835,
28.025,1.037989,0.000000,725.625,704.84,30,-0.852552,0.000000,0.038282,0.000000,1.000000,-1.984058,-60.359,
28.1042,1.036898,0.000000,727.604,706.83,30,-0.875768,0.000000,-0.544426,0.000000,1.000000,-2.039379,-62.042,
28.1833,1.035807,0.000000,729.583,708.83,30,-0.897908,0.000000,-1.102501,0.000000,1.000000,-2.092269,-63.651,
28.2625,1.034716,0.000000,731.562,710.82,30,-0.919668,0.000000,-1.652549,0.000000,1.000000,-2.144336,-65.235,
28.3417,1.033625,0.000000,733.542,712.82,30,-0.940132,0.000000,-2.172465,0.000000,1.000000,-2.193446,-66.729,
28.4208,1.032534,0.000000,735.521,714.82,30,-0.959033,0.000000,-2.655676,0.000000,1.000000,-2.238972,-68.114,
28.5,1.031225,0.000000,737.5,716.81,30,-0.976490,0.000000,-3.104821,0.000000,1.000000,-2.281178,-69.398,
28.5792,1.030352,0.000000,739.479,718.81,30,-0.992490,0.000000,-3.519621,0.000000,1.000000,-2.320032,-70.58,
28.6583,1.029479,0.000000,741.458,720.8,30,-1.007231,0.000000,-3.904717,0.000000,1.000000,-2.355992,-71.674,
28.7375,1.028388,0.000000,743.438,722.79,30,-1.021140,0.000000,-4.270395,0.000000,1.000000,-2.390047,-72.71,
28.8167,1.027297,0.000000,745.417,724.78,30,-1.033976,0.000000,-4.610811,0.000000,1.000000,-2.421636,-73.671,
28.8958,1.026206,0.000000,747.396,726.78,30,-1.045982,0.000000,-4.931816,0.000000,1.000000,-2.451318,-74.574,
28.975,1.025115,0.000000,749.375,728.77,30,-1.057426,0.000000,-5.239783,0.000000,1.000000,-2.479719,-75.438,
29.0542,1.023806,0.000000,751.354,730.76,30,-1.068295,0.000000,-5.534412,0.000000,1.000000,-2.506804,-76.262,
29.1333,1.022496,0.000000,753.333,732.75,30,-1.078672,0.000000,-5.817746,0.000000,1.000000,-2.532772,-77.052,
29.2125,1.021405,0.000000,755.312,734.74,30,-1.088631,0.000000,-6.091487,0.000000,1.000000,-2.557787,-77.813,
29.2917,1.020533,0.000000,757.292,736.72,30,-1.098241,0.000000,-6.357277,0.000000,1.000000,-2.582013,-78.55,
29.3708,1.019660,0.000000,759.271,738.71,30,-1.107531,0.000000,-6.615924,0.000000,1.000000,-2.605516,-79.265,
29.45,1.018787,0.000000,761.25,740.7,30,-1.116446,0.000000,-6.865982,0.000000,1.000000,-2.628164,-79.954,
29.5292,1.017696,0.000000,763.229,742.69,30,-1.125043,0.000000,-7.108816,0.000000,1.000000,-2.650089,-80.621,
29.6083,1.016605,0.000000,765.208,744.68,30,-1.133486,0.000000,-7.348547,0.000000,1.000000,-2.671685,-81.278,
29.6875,1.015514,0.000000,767.188,746.66,30,-1.141671,0.000000,-7.582349,0.000000,1.000000,-2.692690,-81.917,
29.7667,1.014423,0.000000,769.167,748.65,30,-1.149660,0.000000,-7.812077,0.000000,1.000000,-2.713267,-82.543,
29.8458,1.013550,0.000000,771.146,750.64,30,-1.157363,0.000000,-8.035247,0.000000,1.000000,-2.733187,-83.149,
29.925,1.012459,0.000000,773.125,752.62,30,-1.164889,0.000000,-8.254535,0.000000,1.000000,-2.752712,-83.743,
30.0042,1.011586,0.000000,775.104,754.61,30,-1.172208,0.000000,-8.469395,0.000000,1.000000,-2.771777,-84.323,
30.0833,1.010495,0.000000,777.083,756.59,30,-1.179255,0.000000,-8.677947,0.000000,1.000000,-2.790218,-84.884,
30.1625,1.009404,0.000000,779.062,758.58,30,-1.186125,0.000000,-8.882754,0.000000,1.000000,-2.808264,-85.433,
30.2417,1.008313,0.000000,781.042,760.57,30,-1.192917,0.000000,-9.086153,0.000000,1.000000,-2.826146,-85.977,
30.3208,1.007222,0.000000,783.021,762.55,30,-1.199616,0.000000,-9.287721,0.000000,1.000000,-2.843830,-86.515,
30.4,1.005913,0.000000,785,764.53,30,-1.206239,0.000000,-9.487880,0.000000,1.000000,-2.861350,-87.048,
30.4792,1.005040,0.000000,786.979,766.52,30,-1.212838,0.000000,-9.688095,0.000000,1.000000,-2.878838,-87.58,
30.5583,1.003949,0.000000,788.958,768.5,30,-1.219374,0.000000,-9.887169,0.000000,1.000000,-2.896194,-88.108,
30.6375,1.003076,0.000000,790.938,770.49,30,-1.225885,0.000000,-10.0863,0.000000,1.000000,-2.913517,-88.635,
30.7167,1.002204,0.000000,792.917,772.47,30,-1.232251,0.000000,-10.2822,0.000000,1.000000,-2.930511,-89.152,
30.7958,1.001331,0.000000,794.896,774.45,30,-1.238554,0.000000,-10.4771,0.000000,1.000000,-2.947374,-89.665,
30.875,1.000240,0.000000,796.875,776.44,30,-1.244833,0.000000,-10.672,0.000000,1.000000,-2.964204,-90.177,
30.9542,0.999367,0.000000,798.854,778.42,30,-1.251023,0.000000,-10.8651,0.000000,1.000000,-2.980836,-90.683,
31.0333,0.998276,0.000000,800.833,780.4,30,-1.257010,0.000000,-11.0536,0.000000,1.000000,-2.997009,-91.175,
31.1125,0.997185,0.000000,802.812,782.39,30,-1.262854,0.000000,-11.2391,0.000000,1.000000,-3.012853,-91.657,
31.1917,0.996094,0.000000,804.792,784.37,30,-1.268635,0.000000,-11.4235,0.000000,1.000000,-3.028565,-92.135,
31.2708,0.995221,0.000000,806.771,786.35,30,-1.274226,0.000000,-11.6036,0.000000,1.000000,-3.043850,-92.6,
31.35,0.994130,0.000000,808.75,788.33,30,-1.279812,0.000000,-11.7841,0.000000,1.000000,-3.059135,-93.065,
31.4292,0.993257,0.000000,810.729,790.32,30,-1.285226,0.000000,-11.9608,0.000000,1.000000,-3.074025,-93.518,
31.5083,0.992166,0.000000,812.708,792.3,30,-1.290482,0.000000,-12.1339,0.000000,1.000000,-3.088554,-93.96,
31.5875,0.991293,0.000000,814.688,794.28,30,-1.295540,0.000000,-12.3024,0.000000,1.000000,-3.102623,-94.388,
31.6667,0.990639,0.000000,816.667,796.26,30,-1.300370,0.000000,-12.4657,0.000000,1.000000,-3.116166,-94.8,
31.7458,0.989766,0.000000,818.646,798.24,30,-1.305208,0.000000,-12.6297,0.000000,1.000000,-3.129742,-95.213,
31.825,0.989111,0.000000,820.625,800.22,30,-1.309974,0.000000,-12.7922,0.000000,1.000000,-3.143153,-95.621,
31.9042,0.988239,0.000000,822.604,802.2,30,-1.314704,0.000000,-12.9544,0.000000,1.000000,-3.156499,-96.027,
31.9833,0.987366,0.000000,824.583,804.19,30,-1.319301,0.000000,-13.1138,0.000000,1.000000,-3.169548,-96.424,
32.0625,0.986493,0.000000,826.562,806.17,30,-1.323748,0.000000,-13.2696,0.000000,1.000000,-3.182237,-96.81,
32.1417,0.985620,0.000000,828.542,808.15,30,-1.328024,0.000000,-13.4215,0.000000,1.000000,-3.194530,-97.184,
32.2208,0.984529,0.000000,830.521,810.13,30,-1.332075,0.000000,-13.5681,0.000000,1.000000,-3.206298,-97.542,
32.3,0.983656,0.000000,832.5,812.11,30,-1.336014,0.000000,-13.7122,0.000000,1.000000,-3.217803,-97.892,
32.3792,0.982784,0.000000,834.479,814.09,30,-1.339863,0.000000,-13.8546,0.000000,1.000000,-3.229111,-98.236,
32.4583,0.981693,0.000000,836.458,816.07,30,-1.343530,0.000000,-13.9926,0.000000,1.000000,-3.239991,-98.567,
32.5375,0.981038,0.000000,838.438,818.05,30,-1.347102,0.000000,-14.1286,0.000000,1.000000,-3.250641,-98.891,
32.6167,0.980165,0.000000,840.417,820.03,30,-1.350542,0.000000,-14.2616,0.000000,1.000000,-3.260995,-99.206,
32.6958,0.979292,0.000000,842.396,822.01,30,-1.353802,0.000000,-14.3904,0.000000,1.000000,-3.270922,-99.508,
32.775,0.978638,0.000000,844.375,823.99,30,-1.357006,0.000000,-14.5181,0.000000,1.000000,-3.280718,-99.806,
32.8542,0.977547,0.000000,846.354,825.97,30,-1.360124,0.000000,-14.644,0.000000,1.000000,-3.290316,-100.098,
32.9333,0.976674,0.000000,848.333,827.95,30,-1.363196,0.000000,-14.7691,0.000000,1.000000,-3.299816,-100.387,
33.0125,0.975583,0.000000,850.312,829.92,30,-1.366105,0.000000,-14.8902,0.000000,1.000000,-3.308921,-100.664,
33.0917,0.974492,0.000000,852.292,831.9,30,-1.369048,0.000000,-15.0127,0.000000,1.000000,-3.318125,-100.944,
33.1708,0.973401,0.000000,854.271,833.88,30,-1.371852,0.000000,-15.132,0.000000,1.000000,-3.327000,-101.214,
33.25,0.972528,0.000000,856.25,835.86,30,-1.374572,0.000000,-15.2495,0.000000,1.000000,-3.335678,-101.478,
33.3292,0.971655,0.000000,858.229,837.84,30,-1.377141,0.000000,-15.3634,0.000000,1.000000,-3.343994,-101.731,
33.4083,0.970782,0.000000,860.208,839.82,30,-1.379884,0.000000,-15.4822,0.000000,1.000000,-3.352738,-101.997,
33.4875,0.969910,0.000000,862.188,841.8,30,-1.382595,0.000000,-15.6005,0.000000,1.000000,-3.361416,-102.261,
33.5667,0.969255,0.000000,864.167,843.78,30,-1.385318,0.000000,-15.7196,0.000000,1.000000,-3.370127,-102.526,
33.6458,0.968382,0.000000,866.146,845.76,30,-1.388008,0.000000,-15.8382,0.000000,1.000000,-3.378772,-102.789,
33.725,0.967291,0.000000,868.125,847.73,30,-1.390740,0.000000,-15.9581,0.000000,1.000000,-3.387516,-103.055,
33.8042,0.966200,0.000000,870.104,849.71,30,-1.393508,0.000000,-16.0795,0.000000,1.000000,-3.396358,-103.324,
33.8833,0.964891,0.000000,872.083,851.69,30,-1.396231,0.000000,-16.2001,0.000000,1.000000,-3.405102,-103.59,
33.9625,0.963582,0.000000,874.062,853.67,30,-1.398954,0.000000,-16.321,0.000000,1.000000,-3.413845,-103.856,
34.0417,0.962491,0.000000,876.042,855.64,30,-1.401618,0.000000,-16.4408,0.000000,1.000000,-3.422457,-104.118,
34.1208,0.961400,0.000000,878.021,857.62,30,-1.404441,0.000000,-16.5652,0.000000,1.000000,-3.431464,-104.392,
34.2,0.960309,0.000000,880,859.6,30,-1.407290,0.000000,-16.6907,0.000000,1.000000,-3.440536,-104.668,
34.2792,0.959218,0.000000,881.979,861.58,30,-1.410093,0.000000,-16.8154,0.000000,1.000000,-3.449510,-104.941,
34.3583,0.958127,0.000000,883.958,863.56,30,-1.412977,0.000000,-16.9426,0.000000,1.000000,-3.458681,-105.22,
34.4375,0.956818,0.000000,885.938,865.54,30,-1.415909,0.000000,-17.0716,0.000000,1.000000,-3.467984,-105.503,
34.5167,0.955508,0.000000,887.917,867.51,30,-1.418920,0.000000,-17.2029,0.000000,1.000000,-3.477483,-105.792,
34.5958,0.954417,0.000000,889.896,869.49,30,-1.421967,0.000000,-17.3358,0.000000,1.000000,-3.487082,-106.084,
34.675,0.953108,0.000000,891.875,871.47,30,-1.425041,0.000000,-17.4697,0.000000,1.000000,-3.496746,-106.378,
34.7542,0.951799,0.000000,893.854,873.44,30,-1.428082,0.000000,-17.6032,0.000000,1.000000,-3.506344,-106.67,
34.8333,0.950708,0.000000,895.833,875.42,30,-1.430961,0.000000,-17.7328,0.000000,1.000000,-3.515548,-106.95,
34.9125,0.949617,0.000000,897.812,877.4,30,-1.433759,0.000000,-17.8606,0.000000,1.000000,-3.524555,-107.224,
34.9917,0.948526,0.000000,899.792,879.38,30,-1.436617,0.000000,-17.9906,0.000000,1.000000,-3.533726,-107.503,
35.0708,0.947653,0.000000,900,881.36,15.4,-1.439074,0.000000,-18.1102,0.000000,1.000000,-3.541910,-107.752,
35.15,0.948308,0.000000,900,883.33,10.4,-1.442463,0.000000,-18.2551,0.000000,1.000000,-3.552396,-108.071,
35.2292,0.949617,0.000000,900,885.3,9.900000,-1.440698,0.000000,-18.2611,0.000000,1.000000,-3.550161,-108.003,
35.3083,0.950926,0.000000,900,887.02,10,-1.429111,0.000000,-17.995,0.000000,1.000000,-3.523437,-107.19,
35.3875,0.952017,0.000000,900,888.48,10.1,-1.444478,0.000000,-18.4502,0.000000,1.000000,-3.562882,-108.39,
35.4667,0.952890,0.000000,900,889.76,10.1,-1.468125,0.000000,-19.1252,0.000000,1.000000,-3.622576,-110.206,
35.5458,0.952453,0.000000,900,890.88,10.1,-1.490353,0.000000,-19.7587,0.000000,1.000000,-3.678654,-111.912,
35.625,0.951144,0.000000,900,891.9,10.1,-1.511028,0.000000,-20.3483,0.000000,1.000000,-3.730820,-113.499,
35.7042,0.949399,0.000000,900,892.84,10.2,-1.526283,0.000000,-20.7893,0.000000,1.000000,-3.769542,-114.677,
35.7833,0.947653,0.000000,900,893.72,10.2,-1.538456,0.000000,-21.1455,0.000000,1.000000,-3.800605,-115.622,
35.8625,0.945907,0.000000,900,894.55,10.2,-1.548013,0.000000,-21.4296,0.000000,1.000000,-3.825159,-116.369,
35.9417,0.944162,0.000000,900,895.32,10.2,-1.555261,0.000000,-21.6496,0.000000,1.000000,-3.843962,-116.941,
36.0063,0.942634,0.000000,900,895.93,10.2,-1.560432,0.000000,-21.8085,0.000000,1.000000,-3.857439,-117.351,